participantID,date,trialId,trialNo,blockNo,cutNo,expCond,control,keyCode,shownImgID,shownFoilID,shownSegID,reactionTime,segSize,segCenterX,segCenterY,segCentDist,intDiff,intStd,segNcut,segStab,leaf,correct,meanImgInt,meanSegInt,deltaInt,intOrder,expTime,presentedImgs,segIntensity,segPos,intVals,intDelta,nmcPars,avgCrossCorr
eb,03-12-2022,1.0,1.0,1.0,0.7069299823886379,2.0,1.0,,10140.0,44054.0,8.0,,-0.8713992618660102,1.5415581151248738,-0.2424525305913606,0.1516235055884461,0.29348918039971533,0.9191728460157476,1.0,1.0,1.0,0.0,0.24626600375197874,0.33810342767151835,-0.29348918039971533,0.24233130847393067,1.0,"[[1 1 1 1 1 2 2 2 2 2]
 [5 5 1 1 1 2 2 2 2 2]
 [5 5 5 5 3 3 3 3 3 3]
 [5 5 5 5 3 3 3 3 3 3]
 [5 5 5 5 3 3 3 3 3 3]
 [5 5 5 5 3 3 3 3 3 3]
 [6 6 6 5 4 4 4 4 4 4]
 [6 6 6 6 4 4 4 4 4 4]
 [6 6 6 6 4 4 4 4 4 4]
 [6 6 6 6 6 4 4 4 4 4]]","[[5 5 5 1 1 1 1 1 1 1]
 [5 5 5 1 1 1 1 1 1 1]
 [5 5 5 1 1 1 1 3 3 3]
 [5 5 5 1 3 3 3 3 3 3]
 [6 6 6 3 3 3 3 3 3 3]
 [6 6 6 6 3 3 3 3 3 3]
 [6 6 6 6 4 2 2 2 2 2]
 [6 6 6 4 4 4 2 2 2 2]
 [6 6 6 4 4 4 2 2 2 2]
 [6 6 6 4 4 4 2 2 2 2]]","[[ 8  4]
 [ 9  4]
 [10  4]
 [ 7  5]
 [ 8  5]
 [ 9  5]
 [10  5]
 [ 8  6]
 [ 9  6]
 [10  6]]",[190 193 196 199 202 205],0,[1.5   0.004 2.    1.   ],0.2371293892021048
eb,03-12-2022,2.0,2.0,1.0,-1.4138599647772758,1.0,0.0,,8245.0,0.0,2.0,,1.4935879918696278,1.0714275524152448,1.36319336736467,0.7158940076314996,1.183524478704568,0.8778870104298121,1.0,1.0,1.0,0.0,1.6014894876860448,1.4485679570263148,-1.183524478704568,1.2509944030584492,0.2,"[[5 5 5 5 5 1 1 1 1 1]
 [5 5 5 5 5 1 1 1 1 1]
 [5 5 5 5 5 1 1 1 1 1]
 [3 5 5 5 2 2 1 1 1 1]
 [3 3 3 2 2 2 2 6 6 6]
 [3 3 3 4 4 2 2 6 6 6]
 [3 3 4 4 4 4 6 6 6 6]
 [3 3 4 4 4 4 6 6 6 6]
 [3 3 4 4 4 4 6 6 6 6]
 [3 3 4 4 4 4 6 6 6 6]]","[[5 5 5 5 5 1 1 1 1 1]
 [5 5 5 5 5 1 1 1 1 1]
 [5 5 5 5 5 1 1 1 1 1]
 [3 5 5 5 2 2 1 1 1 1]
 [3 3 3 2 2 2 2 6 6 6]
 [3 3 3 4 4 2 2 6 6 6]
 [3 3 4 4 4 4 6 6 6 6]
 [3 3 4 4 4 4 6 6 6 6]
 [3 3 4 4 4 4 6 6 6 6]
 [3 3 4 4 4 4 6 6 6 6]]","[[ 7  7]
 [ 8  7]
 [ 9  7]
 [10  7]
 [ 5  8]
 [ 6  8]
 [ 7  8]
 [ 8  8]
 [ 9  8]
 [10  8]
 [ 5  9]
 [ 6  9]
 [ 7  9]
 [ 8  9]
 [ 9  9]
 [10  9]
 [ 5 10]
 [ 6 10]
 [ 7 10]
 [ 8 10]
 [ 9 10]
 [10 10]]",[190 193 196 199 202 205],0,[1.5   0.004 2.    1.   ],
eb,03-12-2022,3.0,3.0,1.0,0.7069299823886379,1.0,0.0,1.0,60578.0,0.0,9.0,0.21958530941335178,2.084834805303537,1.0714275524152448,-1.1599644722805211,0.3118328910707882,0.9200400359585997,5.010466872603884,1.0,1.0,1.0,0.0,-0.4527570117955724,0.8885195512674343,-0.9200400359585997,0.74666285576619,0.2,"[[6 6 6 6 4 3 3 3 3 3]
 [6 6 6 4 4 3 3 3 3 3]
 [6 4 4 4 4 2 3 3 3 3]
 [4 4 4 4 2 2 2 2 2 3]
 [5 5 4 4 2 2 2 2 1 1]
 [5 5 5 5 2 2 1 1 1 1]
 [5 5 5 5 1 1 1 1 1 1]
 [5 5 5 5 5 1 1 1 1 1]
 [5 5 5 5 5 1 1 1 1 1]
 [5 5 5 5 5 1 1 1 1 1]]","[[6 6 6 6 4 3 3 3 3 3]
 [6 6 6 4 4 3 3 3 3 3]
 [6 4 4 4 4 2 3 3 3 3]
 [4 4 4 4 2 2 2 2 2 3]
 [5 5 4 4 2 2 2 2 1 1]
 [5 5 5 5 2 2 1 1 1 1]
 [5 5 5 5 1 1 1 1 1 1]
 [5 5 5 5 5 1 1 1 1 1]
 [5 5 5 5 5 1 1 1 1 1]
 [5 5 5 5 5 1 1 1 1 1]]","[[ 5  1]
 [ 6  1]
 [ 7  1]
 [ 8  1]
 [ 9  1]
 [10  1]
 [ 5  2]
 [ 6  2]
 [ 7  2]
 [ 8  2]
 [ 9  2]
 [10  2]
 [ 6  3]
 [ 7  3]
 [ 8  3]
 [ 9  3]
 [10  3]
 [ 6  4]
 [ 7  4]
 [ 8  4]
 [ 9  4]
 [10  4]
 [ 8  5]
 [ 9  5]
 [10  5]]",[190 193 196 199 202 205],0,[1.5   0.004 2.    1.   ],
eb,03-12-2022,4.0,4.0,1.0,1.4138599647772758,2.0,0.0,1.0,14475.0,0.0,10.0,0.8997352403031427,0.5081766361464453,1.0714275524152448,-0.47183051601365067,-0.6538332269844213,0.15861720706789037,0.8876732036913636,1.0,1.0,1.0,0.0,1.2434793783242708,0.33810342767151835,-0.15861720706789037,0.24233130847393067,1.0,"[[3 3 3 3 3 3 2 2 2 2]
 [3 3 3 3 3 3 2 2 2 2]
 [3 3 3 3 3 3 5 5 5 5]
 [3 3 3 3 3 5 5 5 5 5]
 [6 4 4 4 4 4 5 5 5 5]
 [6 6 4 4 4 4 5 5 1 1]
 [6 6 6 4 4 4 4 1 1 1]
 [6 6 6 6 4 4 1 1 1 1]
 [6 6 6 6 6 4 1 1 1 1]
 [6 6 6 6 6 4 1 1 1 1]]","[[3 3 3 3 3 3 2 2 2 2]
 [3 3 3 3 3 3 2 2 2 2]
 [3 3 3 3 3 3 5 5 5 5]
 [3 3 3 3 3 5 5 5 5 5]
 [6 4 4 4 4 4 5 5 5 5]
 [6 6 4 4 4 4 5 5 1 1]
 [6 6 6 4 4 4 4 1 1 1]
 [6 6 6 6 4 4 1 1 1 1]
 [6 6 6 6 6 4 1 1 1 1]
 [6 6 6 6 6 4 1 1 1 1]]","[[ 5  2]
 [ 5  3]
 [ 6  3]
 [ 5  4]
 [ 6  4]
 [ 7  4]
 [ 5  5]
 [ 6  5]
 [ 7  5]
 [ 8  5]
 [ 5  6]
 [ 6  6]
 [ 7  6]
 [ 8  6]
 [ 9  6]
 [10  6]
 [ 7  7]]",[190 193 196 199 202 205],0,[1.5   0.004 2.    1.   ],
eb,03-12-2022,5.0,5.0,1.0,0.0,1.0,1.0,1.0,13753.0,34952.0,6.0,0.28753342890520067,-0.4772347195767373,-0.8090946984232718,0.9044373965200898,-0.06136856687254028,-1.2615890805866987,-0.5048848436986723,1.0,1.0,1.0,1.0,0.34479019984771325,-1.2569937105659874,1.2615890805866987,-1.2706633334028472,0.2,"[[6 6 6 6 6 5 5 5 5 5]
 [6 6 6 6 6 5 5 5 5 5]
 [6 6 6 6 4 4 5 5 5 5]
 [6 6 6 4 4 4 4 3 3 3]
 [2 2 4 4 4 4 3 3 3 3]
 [2 2 2 4 4 4 3 3 3 3]
 [2 2 2 2 1 1 1 3 3 3]
 [2 2 2 2 1 1 1 1 1 1]
 [2 2 2 2 1 1 1 1 1 1]
 [2 2 2 2 1 1 1 1 1 1]]","[[3 3 3 5 5 5 5 5 5 5]
 [3 3 3 6 1 5 5 5 5 5]
 [3 3 6 6 1 1 1 5 5 5]
 [3 3 6 6 1 1 1 1 1 1]
 [3 6 6 6 6 1 1 2 2 2]
 [6 6 6 6 6 2 2 2 2 2]
 [4 4 4 4 4 2 2 2 2 2]
 [4 4 4 4 4 2 2 2 2 2]
 [4 4 4 4 4 2 2 2 2 2]
 [4 4 4 4 4 4 2 2 2 2]]","[[ 2  5]
 [ 3  5]
 [ 4  5]
 [ 3  6]
 [ 4  6]
 [ 5  6]
 [ 3  7]
 [ 4  7]
 [ 5  7]
 [ 4  8]
 [ 4  9]
 [ 4 10]]",[190 193 196 199 202 205],0,[1.5   0.004 2.    1.   ],0.1912866080125681
eb,03-12-2022,6.0,6.0,1.0,-0.7069299823886379,1.0,1.0,1.0,92495.0,48386.0,4.0,0.2196956833115278,-1.0684815330106467,-0.5740294170684572,1.1338153819423797,0.025695761212690807,1.4229477032944586,0.9280455654385631,1.0,1.0,1.0,1.0,-0.1687525859347962,1.4485679570263148,-1.4229477032944586,1.2509944030584492,0.2,"[[6 6 3 3 3 3 1 1 1 1]
 [6 6 6 3 3 3 1 1 1 1]
 [6 6 6 3 3 3 1 1 1 1]
 [6 6 6 6 3 1 1 5 5 5]
 [6 6 6 6 6 5 5 5 5 5]
 [4 4 4 4 4 4 5 5 5 5]
 [4 4 4 4 4 4 2 2 2 2]
 [4 4 4 4 4 4 2 2 2 2]
 [4 4 4 4 4 4 2 2 2 2]
 [4 4 4 4 4 4 2 2 2 2]]","[[1 1 1 1 1 1 2 2 2 2]
 [1 1 1 1 1 1 2 2 2 2]
 [1 1 1 1 1 1 6 6 2 2]
 [5 5 5 5 5 6 6 6 6 2]
 [5 5 5 5 5 3 3 6 6 6]
 [4 4 4 5 5 3 3 3 3 3]
 [4 4 4 4 4 3 3 3 3 3]
 [4 4 4 4 4 3 3 3 3 3]
 [4 4 4 4 4 4 3 3 3 3]
 [4 4 4 4 4 4 3 3 3 3]]","[[ 4  6]
 [ 3  7]
 [ 4  7]
 [ 3  8]
 [ 4  8]
 [ 5  8]
 [ 4  9]
 [ 5  9]
 [ 5 10]]",[190 193 196 199 202 205],0,[1.5   0.004 2.    1.   ],0.2529807056153578
eb,03-12-2022,7.0,7.0,1.0,1.4138599647772758,2.0,0.0,1.0,50416.0,0.0,11.0,0.8316053285084155,1.4935879918696278,0.8363622710604302,-1.389342457702811,0.4643999094791639,1.3292180546619996,0.8778870104298121,1.0,1.0,1.0,0.0,0.5242635900819173,1.4485679570263148,-1.3292180546619996,1.2509944030584492,1.0,"[[3 3 3 3 3 4 4 4 4 4]
 [3 3 3 3 3 4 4 4 4 4]
 [3 3 3 3 5 4 4 4 4 2]
 [6 3 5 5 5 5 5 2 2 2]
 [6 6 5 5 5 5 1 2 2 2]
 [6 6 6 5 5 1 1 2 2 2]
 [6 6 6 6 1 1 1 1 2 2]
 [6 6 6 6 1 1 1 1 2 2]
 [6 6 6 6 1 1 1 1 1 2]
 [6 6 6 6 1 1 1 1 1 2]]","[[3 3 3 3 3 4 4 4 4 4]
 [3 3 3 3 3 4 4 4 4 4]
 [3 3 3 3 5 4 4 4 4 2]
 [6 3 5 5 5 5 5 2 2 2]
 [6 6 5 5 5 5 1 2 2 2]
 [6 6 6 5 5 1 1 2 2 2]
 [6 6 6 6 1 1 1 1 2 2]
 [6 6 6 6 1 1 1 1 2 2]
 [6 6 6 6 1 1 1 1 1 2]
 [6 6 6 6 1 1 1 1 1 2]]","[[ 4  1]
 [ 5  1]
 [ 6  1]
 [ 7  1]
 [ 8  1]
 [ 9  1]
 [10  1]
 [ 5  2]
 [ 6  2]
 [ 7  2]
 [ 8  2]
 [ 9  2]
 [10  2]
 [ 6  3]
 [ 7  3]
 [ 8  3]
 [ 9  3]
 [10  3]
 [ 7  4]
 [ 8  4]
 [ 9  4]
 [10  4]]",[190 193 196 199 202 205],0,[1.5   0.004 2.    1.   ],
eb,03-12-2022,8.0,8.0,1.0,-0.7069299823886379,1.0,0.0,0.0,15835.0,0.0,5.0,0.8317546579000655,-0.08307017728746428,1.3064928337700592,1.59257135278696,1.411629270161289,-1.17763509003488,-0.5048848436986723,1.0,1.0,1.0,1.0,-0.27594693447902563,-1.2569937105659874,1.17763509003488,-1.2706633334028472,0.2,"[[5 5 5 5 5 5 5 6 6 6]
 [4 5 5 5 5 5 5 6 6 6]
 [4 4 4 4 5 5 5 6 6 6]
 [4 4 4 4 4 4 4 3 3 6]
 [4 4 4 4 4 4 3 3 3 3]
 [4 4 4 2 2 3 3 3 1 1]
 [2 2 2 2 2 2 3 1 1 1]
 [2 2 2 2 2 2 2 1 1 1]
 [2 2 2 2 2 2 2 1 1 1]
 [2 2 2 2 2 2 2 1 1 1]]","[[5 5 5 5 5 5 5 6 6 6]
 [4 5 5 5 5 5 5 6 6 6]
 [4 4 4 4 5 5 5 6 6 6]
 [4 4 4 4 4 4 4 3 3 6]
 [4 4 4 4 4 4 3 3 3 3]
 [4 4 4 2 2 3 3 3 1 1]
 [2 2 2 2 2 2 3 1 1 1]
 [2 2 2 2 2 2 2 1 1 1]
 [2 2 2 2 2 2 2 1 1 1]
 [2 2 2 2 2 2 2 1 1 1]]","[[ 7  8]
 [ 8  8]
 [ 9  8]
 [10  8]
 [ 6  9]
 [ 7  9]
 [ 8  9]
 [ 9  9]
 [10  9]
 [ 6 10]
 [ 7 10]
 [ 8 10]
 [ 9 10]
 [10 10]]",[190 193 196 199 202 205],0,[1.5   0.004 2.    1.   ],
eb,03-12-2022,9.0,9.0,1.0,0.7069299823886379,2.0,0.0,1.0,97441.0,0.0,9.0,-0.12064547800543926,0.9023411784357183,-0.5740294170684572,-1.389342457702811,0.4643999094791639,-0.6887503788955489,2.2711146436593728,1.0,1.0,1.0,0.0,-0.15658622150954962,-0.7344917868892152,0.6887503788955489,-0.7663317861105879,1.0,"[[2 6 6 6 6 4 4 4 4 4]
 [2 2 6 6 6 4 4 4 4 4]
 [2 2 2 6 6 6 4 4 4 4]
 [2 2 2 6 6 5 5 5 5 5]
 [2 2 2 2 5 5 5 5 5 5]
 [2 2 2 2 5 5 5 5 5 1]
 [2 2 3 3 3 1 1 1 1 1]
 [3 3 3 3 3 3 1 1 1 1]
 [3 3 3 3 3 3 1 1 1 1]
 [3 3 3 3 3 3 3 1 1 1]]","[[2 6 6 6 6 4 4 4 4 4]
 [2 2 6 6 6 4 4 4 4 4]
 [2 2 2 6 6 6 4 4 4 4]
 [2 2 2 6 6 5 5 5 5 5]
 [2 2 2 2 5 5 5 5 5 5]
 [2 2 2 2 5 5 5 5 5 1]
 [2 2 3 3 3 1 1 1 1 1]
 [3 3 3 3 3 3 1 1 1 1]
 [3 3 3 3 3 3 1 1 1 1]
 [3 3 3 3 3 3 3 1 1 1]]","[[1 1]
 [2 1]
 [3 1]
 [4 1]
 [5 1]
 [6 1]
 [7 1]
 [2 2]
 [3 2]
 [4 2]
 [5 2]
 [6 2]
 [7 2]
 [3 3]
 [4 3]
 [5 3]
 [6 3]
 [5 4]
 [6 4]]",[190 193 196 199 202 205],0,[1.5   0.004 2.    1.   ],
eb,03-12-2022,10.0,10.0,1.0,0.7069299823886379,2.0,0.0,1.0,13026.0,0.0,9.0,3.692599027401951,0.3110943650018087,-1.279225261132901,1.1338153819423797,1.0155209311014983,-1.0551172927107613,0.8904010379361199,1.0,1.0,1.0,0.0,2.5522492572926248,-0.7344917868892108,1.0551172927107613,-0.7663317861105879,1.0,"[[4 4 4 4 4 2 2 2 2 2]
 [3 4 4 4 4 4 2 2 2 2]
 [3 3 4 4 4 4 2 2 2 2]
 [3 3 3 3 1 1 1 2 2 2]
 [3 3 3 3 1 1 1 6 6 6]
 [3 3 3 3 5 5 6 6 6 6]
 [3 3 3 5 5 5 6 6 6 6]
 [3 5 5 5 5 5 6 6 6 6]
 [5 5 5 5 5 5 6 6 6 6]
 [5 5 5 5 5 5 6 6 6 6]]","[[4 4 4 4 4 2 2 2 2 2]
 [3 4 4 4 4 4 2 2 2 2]
 [3 3 4 4 4 4 2 2 2 2]
 [3 3 3 3 1 1 1 2 2 2]
 [3 3 3 3 1 1 1 6 6 6]
 [3 3 3 3 5 5 6 6 6 6]
 [3 3 3 5 5 5 6 6 6 6]
 [3 5 5 5 5 5 6 6 6 6]
 [5 5 5 5 5 5 6 6 6 6]
 [5 5 5 5 5 5 6 6 6 6]]","[[ 1  6]
 [ 1  7]
 [ 2  7]
 [ 3  7]
 [ 1  8]
 [ 2  8]
 [ 3  8]
 [ 4  8]
 [ 1  9]
 [ 2  9]
 [ 3  9]
 [ 4  9]
 [ 1 10]
 [ 2 10]
 [ 3 10]
 [ 4 10]]",[190 193 196 199 202 205],0,[1.5   0.004 2.    1.   ],
eb,03-12-2022,11.0,11.0,1.0,0.0,2.0,1.0,1.0,39369.0,46392.0,6.0,3.215483505352562,0.3110943650018087,-1.279225261132901,-0.930586486858231,0.7158940076314996,1.326714317827606,0.8904010379361199,1.0,1.0,1.0,1.0,0.5427756633910541,1.4485679570263148,-1.326714317827606,1.2509944030584492,1.0,"[[3 3 3 3 6 6 6 6 6 4]
 [3 3 3 3 6 6 6 6 4 4]
 [3 3 3 3 3 6 6 4 4 4]
 [5 5 5 3 3 6 6 4 4 4]
 [5 5 5 5 5 3 4 4 4 4]
 [5 5 5 5 5 5 1 4 4 4]
 [5 5 5 5 5 1 1 1 1 1]
 [5 5 5 2 2 2 1 1 1 1]
 [2 2 2 2 2 2 1 1 1 1]
 [2 2 2 2 2 2 2 1 1 1]]","[[6 6 6 6 6 5 5 5 5 5]
 [6 6 6 6 6 5 5 5 5 5]
 [2 6 6 6 6 6 5 5 5 5]
 [2 2 2 2 6 4 4 4 4 4]
 [2 2 2 2 4 4 4 4 4 4]
 [2 2 2 2 4 4 4 4 4 1]
 [2 2 2 3 4 4 4 1 1 1]
 [2 3 3 3 3 4 1 1 1 1]
 [3 3 3 3 3 3 1 1 1 1]
 [3 3 3 3 3 3 1 1 1 1]]","[[1 1]
 [2 1]
 [1 2]
 [2 2]
 [3 2]
 [1 3]
 [2 3]
 [3 3]
 [1 4]
 [2 4]
 [3 4]
 [1 5]
 [2 5]
 [3 5]
 [4 5]
 [3 6]]",[190 193 196 199 202 205],0,[1.5   0.004 2.    1.   ],0.16348593553074456
eb,03-12-2022,12.0,12.0,1.0,-1.4138599647772758,2.0,1.0,1.0,72689.0,2262.0,3.0,0.6284329522952936,-1.2655638041552832,0.13116642699598652,-1.8480984285473914,1.1104129926090085,1.4535951227693995,0.939373254830532,1.0,1.0,1.0,1.0,-0.3953527893836388,1.4485679570263148,-1.4535951227693995,1.2509944030584492,1.0,"[[2 2 2 2 2 3 3 3 3 3]
 [2 2 2 2 2 3 3 3 3 3]
 [2 2 2 2 2 4 3 3 3 3]
 [2 2 2 6 6 4 4 4 4 3]
 [6 6 6 6 6 4 4 4 4 4]
 [6 6 6 6 6 6 4 4 4 4]
 [1 1 6 6 6 5 5 5 5 5]
 [1 1 1 1 6 5 5 5 5 5]
 [1 1 1 1 1 5 5 5 5 5]
 [1 1 1 1 1 5 5 5 5 5]]","[[2 2 2 2 2 1 1 1 1 1]
 [2 2 2 2 2 1 1 1 1 1]
 [6 2 2 2 2 1 1 1 1 1]
 [6 6 2 3 3 1 1 1 4 4]
 [6 6 3 3 3 4 4 4 4 4]
 [6 3 3 3 3 3 4 4 4 4]
 [6 3 3 3 3 3 4 5 5 5]
 [6 3 3 3 3 5 5 5 5 5]
 [3 3 3 3 3 5 5 5 5 5]
 [3 3 3 3 5 5 5 5 5 5]]","[[3 1]
 [4 1]
 [5 1]
 [6 1]
 [7 1]
 [8 1]
 [4 2]
 [5 2]]",[190 193 196 199 202 205],0,[1.5   0.004 2.    1.   ],0.27094235884714757
eb,03-12-2022,13.0,13.0,1.0,0.0,2.0,1.0,1.0,54827.0,24223.0,6.0,1.9220637332854196,-1.4626460752999197,0.6012969897056156,-0.2424525305913606,-1.7720663634480065,-1.5555511060209095,-0.5048848436986723,1.0,1.0,1.0,1.0,2.5182800371924743,-1.2569937105659874,1.5555511060209095,-1.2706633334028472,1.0,"[[3 3 3 3 3 1 1 1 1 1]
 [3 3 3 3 3 1 1 1 1 1]
 [3 3 3 3 3 2 2 2 1 1]
 [3 3 3 3 4 2 2 2 2 2]
 [3 3 4 4 4 2 2 2 2 2]
 [4 4 4 4 4 2 2 2 2 2]
 [5 5 5 4 4 6 2 2 2 2]
 [5 5 5 5 5 6 6 6 6 6]
 [5 5 5 5 6 6 6 6 6 6]
 [5 5 5 5 6 6 6 6 6 6]]","[[2 2 2 2 2 2 3 3 3 3]
 [2 2 2 2 2 2 3 3 3 3]
 [2 2 2 2 2 2 3 3 3 3]
 [6 6 6 6 1 5 5 5 5 3]
 [6 6 6 6 1 1 5 5 5 5]
 [6 6 6 6 1 4 4 5 5 5]
 [6 6 6 6 1 4 4 5 5 5]
 [6 6 6 1 4 4 4 4 5 5]
 [6 6 6 1 4 4 4 4 4 5]
 [6 6 6 4 4 4 4 4 4 5]]","[[8 4]
 [9 4]
 [4 5]
 [5 5]
 [6 5]
 [7 5]
 [5 6]]",[190 193 196 199 202 205],0,[1.5   0.004 2.    1.   ],0.26753698136003035
eb,03-12-2022,14.0,14.0,1.0,0.7069299823886379,1.0,1.0,1.0,12122.0,36073.0,8.0,1.2409366687676584,-0.6743169907213737,0.13116642699598652,0.4456814256755096,-1.8901213767814415,0.2589875532744938,0.9120346672822526,1.0,1.0,1.0,1.0,0.5013633613707437,0.33810342767151835,-0.2589875532744938,0.24233130847393067,0.2,"[[2 2 2 2 3 3 3 3 3 3]
 [2 2 2 2 3 3 3 3 3 3]
 [2 2 2 2 2 3 3 3 3 3]
 [2 2 2 2 1 5 5 5 5 5]
 [1 1 1 1 1 5 5 5 5 6]
 [1 1 1 1 1 5 5 5 6 6]
 [1 4 4 4 4 4 5 6 6 6]
 [4 4 4 4 4 4 6 6 6 6]
 [4 4 4 4 4 4 6 6 6 6]
 [4 4 4 4 4 4 6 6 6 6]]","[[6 6 6 1 1 1 1 1 1 1]
 [6 6 6 2 1 1 1 1 1 1]
 [6 6 2 2 2 1 1 1 1 5]
 [6 6 2 2 2 4 4 4 5 5]
 [6 2 2 2 4 4 4 4 5 5]
 [6 2 2 2 4 4 4 5 5 5]
 [3 3 3 3 3 4 5 5 5 5]
 [3 3 3 3 3 3 5 5 5 5]
 [3 3 3 3 3 3 5 5 5 5]
 [3 3 3 3 3 3 3 5 5 5]]","[[5 5]
 [6 5]
 [4 6]
 [5 6]
 [6 6]
 [7 6]
 [4 7]
 [5 7]
 [6 7]
 [4 8]
 [5 8]]",[190 193 196 199 202 205],0,[1.5   0.004 2.    1.   ],0.1972730848158111
eb,03-12-2022,15.0,15.0,1.0,0.7069299823886379,1.0,0.0,1.0,60071.0,0.0,9.0,0.015174473136872134,-0.2801524484321008,-0.5740294170684572,1.36319336736467,0.4643999094791639,0.41802996709797063,0.9012594575890374,1.0,1.0,1.0,0.0,-0.6745608745624788,0.33810342767151835,-0.41802996709797063,0.24233130847393067,0.2,"[[3 2 2 2 2 2 5 5 5 5]
 [3 3 3 2 2 2 5 5 5 4]
 [3 3 3 3 3 5 5 5 4 4]
 [3 3 3 3 3 3 5 4 4 4]
 [3 3 3 3 3 1 4 4 4 4]
 [3 3 1 1 1 1 1 4 4 4]
 [1 1 1 1 1 1 1 6 6 6]
 [1 1 1 1 1 1 6 6 6 6]
 [1 1 1 1 1 1 6 6 6 6]
 [1 1 1 1 1 6 6 6 6 6]]","[[3 2 2 2 2 2 5 5 5 5]
 [3 3 3 2 2 2 5 5 5 4]
 [3 3 3 3 3 5 5 5 4 4]
 [3 3 3 3 3 3 5 4 4 4]
 [3 3 3 3 3 1 4 4 4 4]
 [3 3 1 1 1 1 1 4 4 4]
 [1 1 1 1 1 1 1 6 6 6]
 [1 1 1 1 1 1 6 6 6 6]
 [1 1 1 1 1 1 6 6 6 6]
 [1 1 1 1 1 6 6 6 6 6]]","[[ 5  7]
 [ 4  8]
 [ 5  8]
 [ 6  8]
 [ 3  9]
 [ 4  9]
 [ 5  9]
 [ 6  9]
 [ 2 10]
 [ 3 10]
 [ 4 10]
 [ 5 10]
 [ 6 10]]",[190 193 196 199 202 205],0,[1.5   0.004 2.    1.   ],
eb,03-12-2022,16.0,16.0,1.0,-1.4138599647772758,2.0,0.0,1.0,51116.0,0.0,2.0,0.28751882059514794,0.11401209385717222,-1.279225261132901,-1.389342457702811,1.3530968996469848,-0.7169713152909705,0.8935120471085274,1.0,1.0,1.0,0.0,0.05207310571208313,-0.7344917868892108,0.7169713152909705,-0.7663317861105879,1.0,"[[2 2 2 2 6 6 6 6 6 6]
 [2 2 2 2 6 6 6 6 6 6]
 [2 2 2 2 4 4 4 6 6 6]
 [2 2 2 5 4 4 4 4 4 4]
 [5 5 5 5 5 4 4 4 4 4]
 [5 5 5 5 5 5 4 4 4 4]
 [3 3 5 5 5 1 1 1 1 1]
 [3 3 3 5 1 1 1 1 1 1]
 [3 3 3 3 1 1 1 1 1 1]
 [3 3 3 3 1 1 1 1 1 1]]","[[2 2 2 2 6 6 6 6 6 6]
 [2 2 2 2 6 6 6 6 6 6]
 [2 2 2 2 4 4 4 6 6 6]
 [2 2 2 5 4 4 4 4 4 4]
 [5 5 5 5 5 4 4 4 4 4]
 [5 5 5 5 5 5 4 4 4 4]
 [3 3 5 5 5 1 1 1 1 1]
 [3 3 3 5 1 1 1 1 1 1]
 [3 3 3 3 1 1 1 1 1 1]
 [3 3 3 3 1 1 1 1 1 1]]","[[1 1]
 [2 1]
 [3 1]
 [4 1]
 [1 2]
 [2 2]
 [3 2]
 [4 2]
 [1 3]
 [2 3]
 [3 3]
 [4 3]
 [1 4]
 [2 4]
 [3 4]]",[190 193 196 199 202 205],0,[1.5   0.004 2.    1.   ],
eb,03-12-2022,17.0,17.0,1.0,1.4138599647772758,2.0,0.0,0.0,48988.0,0.0,11.0,2.125828557628457,0.9023411784357183,1.3064928337700592,-0.7012085014359407,0.025695761212690807,0.321553843737648,0.8831148999803502,1.0,1.0,1.0,1.0,0.03876212476149224,0.33810342767151835,-0.321553843737648,0.24233130847393067,1.0,"[[5 5 5 5 6 6 6 6 6 6]
 [5 5 5 5 6 6 6 6 6 6]
 [5 5 5 5 6 6 1 1 1 1]
 [3 3 3 5 1 1 1 1 1 1]
 [3 3 3 3 1 1 1 1 1 2]
 [3 3 3 4 4 4 1 1 2 2]
 [3 3 3 4 4 4 2 2 2 2]
 [3 3 4 4 4 4 2 2 2 2]
 [3 3 4 4 4 4 2 2 2 2]
 [3 4 4 4 4 4 2 2 2 2]]","[[5 5 5 5 6 6 6 6 6 6]
 [5 5 5 5 6 6 6 6 6 6]
 [5 5 5 5 6 6 1 1 1 1]
 [3 3 3 5 1 1 1 1 1 1]
 [3 3 3 3 1 1 1 1 1 2]
 [3 3 3 4 4 4 1 1 2 2]
 [3 3 3 4 4 4 2 2 2 2]
 [3 3 4 4 4 4 2 2 2 2]
 [3 3 4 4 4 4 2 2 2 2]
 [3 4 4 4 4 4 2 2 2 2]]","[[10  2]
 [ 8  3]
 [ 9  3]
 [10  3]
 [ 6  4]
 [ 7  4]
 [ 8  4]
 [ 9  4]
 [10  4]
 [ 6  5]
 [ 7  5]
 [ 8  5]
 [ 9  5]
 [10  5]
 [ 6  6]
 [ 7  6]
 [ 8  6]
 [ 9  6]
 [10  6]]",[190 193 196 199 202 205],0,[1.5   0.004 2.    1.   ],
eb,03-12-2022,18.0,18.0,1.0,1.4138599647772758,2.0,1.0,1.0,90926.0,28613.0,10.0,0.2875610223797447,-0.2801524484321008,-0.5740294170684572,0.9044373965200898,-0.3898541920862165,-0.2856216517168451,2.3074037588767466,1.0,1.0,1.0,1.0,0.6621813111686614,-0.20284607954809,0.2856216517168451,-0.2620002388183286,1.0,"[[4 4 4 4 4 4 1 1 1 1]
 [6 4 4 4 4 1 1 1 1 1]
 [6 6 6 4 4 3 3 1 1 1]
 [6 6 6 6 3 3 3 3 3 3]
 [6 6 6 6 3 3 3 3 3 3]
 [6 6 6 6 3 3 3 3 3 3]
 [6 6 2 2 2 3 3 3 5 5]
 [2 2 2 2 2 5 5 5 5 5]
 [2 2 2 2 2 5 5 5 5 5]
 [2 2 2 2 2 5 5 5 5 5]]","[[4 4 4 4 4 1 1 1 1 1]
 [4 4 4 4 4 1 1 1 1 1]
 [6 6 4 4 4 3 3 1 1 1]
 [6 6 6 6 3 3 3 3 3 3]
 [6 6 6 6 6 3 3 3 3 3]
 [6 6 6 6 6 2 2 2 2 2]
 [5 5 5 5 5 2 2 2 2 2]
 [5 5 5 5 5 2 2 2 2 2]
 [5 5 5 5 5 2 2 2 2 2]
 [5 5 5 5 5 2 2 2 2 2]]","[[ 4  5]
 [ 3  6]
 [ 4  6]
 [ 5  6]
 [ 3  7]
 [ 4  7]
 [ 5  7]
 [ 4  8]
 [ 5  8]
 [ 4  9]
 [ 5  9]
 [ 4 10]
 [ 5 10]]",[190 193 196 199 202 205],0,[1.5   0.004 2.    1.   ],0.21209001568395272
eb,03-12-2022,19.0,19.0,1.0,0.0,2.0,1.0,1.0,83480.0,23284.0,6.0,1.5130359212461608,-0.2801524484321008,0.13116642699598652,0.9044373965200898,-0.8899432536512916,1.3129235528238572,0.9012594575890374,1.0,1.0,1.0,1.0,0.6447415126893884,1.4485679570263148,-1.3129235528238572,1.2509944030584492,1.0,"[[6 6 6 6 3 3 3 3 3 3]
 [6 6 6 6 3 3 3 3 3 3]
 [6 6 6 4 3 3 3 3 5 5]
 [4 4 4 4 3 3 3 5 5 5]
 [4 4 4 4 4 3 5 5 5 5]
 [4 4 4 4 1 5 5 5 5 5]
 [4 1 1 1 1 1 2 2 2 2]
 [1 1 1 1 1 1 2 2 2 2]
 [1 1 1 1 1 2 2 2 2 2]
 [1 1 1 1 1 2 2 2 2 2]]","[[5 5 5 5 5 4 4 4 4 4]
 [5 5 5 5 5 4 4 4 4 4]
 [5 5 5 5 4 4 4 4 4 4]
 [1 1 5 5 4 4 4 4 6 6]
 [1 1 1 1 6 6 6 6 6 6]
 [1 1 1 1 6 6 6 6 2 2]
 [3 3 3 3 3 6 2 2 2 2]
 [3 3 3 3 3 2 2 2 2 2]
 [3 3 3 3 3 2 2 2 2 2]
 [3 3 3 3 3 2 2 2 2 2]]","[[ 5  5]
 [ 6  5]
 [ 5  6]
 [ 6  6]
 [ 7  6]
 [ 5  7]
 [ 6  7]
 [ 5  8]
 [ 6  8]
 [ 4  9]
 [ 5  9]
 [ 4 10]
 [ 5 10]]",[190 193 196 199 202 205],0,[1.5   0.004 2.    1.   ],0.21824151500513445
eb,03-12-2022,20.0,20.0,1.0,-1.4138599647772758,1.0,1.0,1.0,72113.0,15183.0,3.0,0.6279395160446243,-0.4772347195767373,0.13116642699598652,-0.2424525305913606,-2.3902104383465166,-1.4767311365593057,-0.5048848436986723,1.0,1.0,1.0,1.0,1.9355027129732252,-1.2569937105659874,1.4767311365593057,-1.2706633334028472,0.2,"[[5 5 5 5 4 4 4 4 4 1]
 [5 5 5 5 4 4 4 4 1 1]
 [5 5 5 5 4 4 1 1 1 1]
 [2 2 2 2 2 1 1 1 1 1]
 [2 2 2 2 2 1 1 1 1 1]
 [2 2 2 2 2 1 1 1 1 1]
 [2 2 2 2 2 1 1 1 3 3]
 [6 6 6 6 6 1 3 3 3 3]
 [6 6 6 6 6 6 3 3 3 3]
 [6 6 6 6 6 6 3 3 3 3]]","[[5 5 5 5 5 5 2 2 2 2]
 [5 5 5 5 5 4 2 2 2 2]
 [5 5 5 5 5 4 4 4 2 2]
 [5 5 5 1 1 4 4 4 4 4]
 [6 6 1 1 1 1 4 4 4 4]
 [6 6 6 1 1 1 1 4 4 4]
 [6 6 6 6 1 1 3 3 3 3]
 [6 6 6 6 3 3 3 3 3 3]
 [6 6 6 6 3 3 3 3 3 3]
 [6 6 6 6 3 3 3 3 3 3]]","[[5 3]
 [4 4]
 [5 4]
 [6 4]
 [4 5]
 [5 5]
 [6 5]
 [7 5]
 [5 6]
 [6 6]
 [7 6]
 [6 7]]",[190 193 196 199 202 205],0,[1.5   0.004 2.    1.   ],0.16733863366218474
eb,03-12-2022,21.0,21.0,1.0,0.0,1.0,0.0,1.0,37751.0,0.0,6.0,0.4917024164930298,-0.08307017728746428,1.5415581151248738,-0.7012085014359407,0.4643999094791639,-0.1776817403480886,2.299071033590418,1.0,1.0,1.0,0.0,-0.13590238708232907,-0.20284607954809,0.1776817403480886,-0.2620002388183286,0.2,"[[2 2 2 2 4 4 4 4 5 5]
 [2 2 2 2 4 4 4 5 5 5]
 [2 2 2 2 4 4 4 5 5 5]
 [2 2 2 4 4 4 5 5 5 5]
 [6 6 6 6 1 1 5 5 5 5]
 [6 6 6 6 1 1 1 1 5 5]
 [6 6 6 3 1 1 1 1 1 1]
 [6 6 3 3 3 1 1 1 1 1]
 [6 3 3 3 3 3 1 1 1 1]
 [6 3 3 3 3 3 1 1 1 1]]","[[2 2 2 2 4 4 4 4 5 5]
 [2 2 2 2 4 4 4 5 5 5]
 [2 2 2 2 4 4 4 5 5 5]
 [2 2 2 4 4 4 5 5 5 5]
 [6 6 6 6 1 1 5 5 5 5]
 [6 6 6 6 1 1 1 1 5 5]
 [6 6 6 3 1 1 1 1 1 1]
 [6 6 3 3 3 1 1 1 1 1]
 [6 3 3 3 3 3 1 1 1 1]
 [6 3 3 3 3 3 1 1 1 1]]","[[ 9  2]
 [10  2]
 [ 8  3]
 [ 9  3]
 [10  3]
 [ 7  4]
 [ 8  4]
 [ 9  4]
 [10  4]
 [ 8  5]
 [ 9  5]
 [10  5]
 [ 9  6]
 [10  6]]",[190 193 196 199 202 205],0,[1.5   0.004 2.    1.   ],
eb,03-12-2022,22.0,22.0,1.0,-0.7069299823886379,1.0,0.0,0.0,84335.0,0.0,4.0,0.49154821766469564,0.3110943650018087,1.3064928337700592,-1.389342457702811,1.0155209311014983,-1.1670849500413236,-0.5048848436986723,1.0,1.0,1.0,1.0,-0.35395232318421116,-1.2569937105659874,1.1670849500413236,-1.2706633334028472,0.2,"[[3 6 6 6 6 5 5 5 5 5]
 [3 3 6 6 6 5 5 5 2 2]
 [3 3 6 6 6 2 2 2 2 2]
 [3 3 3 6 6 2 2 2 2 2]
 [3 3 3 4 4 2 2 2 2 2]
 [3 1 1 4 4 4 2 2 2 2]
 [1 1 1 4 4 4 4 4 2 2]
 [1 1 1 4 4 4 4 4 4 2]
 [1 1 1 1 4 4 4 4 4 4]
 [1 1 1 1 4 4 4 4 4 4]]","[[3 6 6 6 6 5 5 5 5 5]
 [3 3 6 6 6 5 5 5 2 2]
 [3 3 6 6 6 2 2 2 2 2]
 [3 3 3 6 6 2 2 2 2 2]
 [3 3 3 4 4 2 2 2 2 2]
 [3 1 1 4 4 4 2 2 2 2]
 [1 1 1 4 4 4 4 4 2 2]
 [1 1 1 4 4 4 4 4 4 2]
 [1 1 1 1 4 4 4 4 4 4]
 [1 1 1 1 4 4 4 4 4 4]]","[[ 7  1]
 [ 8  1]
 [ 9  1]
 [10  1]
 [ 6  2]
 [ 7  2]
 [ 8  2]
 [ 9  2]
 [10  2]
 [ 6  3]
 [ 7  3]
 [ 8  3]
 [ 9  3]
 [10  3]
 [ 9  4]
 [10  4]]",[190 193 196 199 202 205],0,[1.5   0.004 2.    1.   ],
eb,03-12-2022,23.0,23.0,1.0,-1.4138599647772758,2.0,0.0,0.0,29199.0,0.0,2.0,0.8321912840560854,1.4935879918696278,-0.8090946984232718,0.9044373965200898,-0.06136856687254028,-1.347324588892971,-0.5048848436986723,1.0,1.0,1.0,1.0,0.9786994802318714,-1.2569937105659874,1.347324588892971,-1.2706633334028472,1.0,"[[2 2 2 2 6 6 6 6 6 1]
 [2 2 2 6 6 6 6 6 1 1]
 [5 5 6 6 6 6 6 1 1 1]
 [5 5 5 6 6 1 1 1 1 1]
 [5 5 5 5 1 1 1 1 1 1]
 [5 5 5 5 5 1 1 1 1 1]
 [5 5 5 5 5 4 4 4 4 4]
 [3 3 3 3 3 4 4 4 4 4]
 [3 3 3 3 3 4 4 4 4 4]
 [3 3 3 3 3 4 4 4 4 4]]","[[2 2 2 2 6 6 6 6 6 1]
 [2 2 2 6 6 6 6 6 1 1]
 [5 5 6 6 6 6 6 1 1 1]
 [5 5 5 6 6 1 1 1 1 1]
 [5 5 5 5 1 1 1 1 1 1]
 [5 5 5 5 5 1 1 1 1 1]
 [5 5 5 5 5 4 4 4 4 4]
 [3 3 3 3 3 4 4 4 4 4]
 [3 3 3 3 3 4 4 4 4 4]
 [3 3 3 3 3 4 4 4 4 4]]","[[ 5  5]
 [ 4  6]
 [ 5  6]
 [ 6  6]
 [ 4  7]
 [ 5  7]
 [ 6  7]
 [ 3  8]
 [ 4  8]
 [ 5  8]
 [ 6  8]
 [ 2  9]
 [ 3  9]
 [ 4  9]
 [ 5  9]
 [ 6  9]
 [ 1 10]
 [ 2 10]
 [ 3 10]
 [ 4 10]
 [ 5 10]
 [ 6 10]]",[190 193 196 199 202 205],0,[1.5   0.004 2.    1.   ],
eb,03-12-2022,24.0,24.0,1.0,-0.7069299823886379,1.0,1.0,1.0,25030.0,23738.0,5.0,0.15128172104355353,-0.08307017728746428,-0.3389641357136426,-0.930586486858231,-0.6538332269844213,-1.3617622067653414,-0.5048848436986723,1.0,1.0,1.0,1.0,1.08544801577728,-1.2569937105659874,1.3617622067653414,-1.2706633334028472,0.2,"[[1 1 1 1 1 1 3 3 3 3]
 [1 1 1 1 1 3 3 3 3 3]
 [5 5 5 1 1 3 3 3 3 3]
 [5 5 5 5 5 2 2 2 2 2]
 [5 5 5 5 5 2 2 2 2 2]
 [5 5 5 5 5 6 2 2 2 2]
 [4 4 4 4 6 6 6 6 2 2]
 [4 4 4 4 6 6 6 6 6 6]
 [4 4 4 4 6 6 6 6 6 6]
 [4 4 4 4 6 6 6 6 6 6]]","[[5 5 5 5 6 6 6 6 6 6]
 [5 5 5 5 1 6 6 6 6 6]
 [5 5 5 1 1 1 6 6 6 6]
 [5 5 1 1 1 3 3 6 6 6]
 [5 1 1 1 3 3 3 2 2 2]
 [1 1 1 3 3 3 3 2 2 2]
 [1 4 4 4 4 4 2 2 2 2]
 [4 4 4 4 4 4 4 2 2 2]
 [4 4 4 4 4 4 4 2 2 2]
 [4 4 4 4 4 4 4 2 2 2]]","[[6 1]
 [7 1]
 [5 2]
 [6 2]
 [4 3]
 [5 3]
 [6 3]
 [3 4]
 [4 4]
 [5 4]
 [2 5]
 [3 5]
 [4 5]
 [3 6]]",[190 193 196 199 202 205],0,[1.5   0.004 2.    1.   ],0.1563936095662928
eb,03-12-2022,25.0,25.0,1.0,0.0,2.0,1.0,0.0,22639.0,4015.0,6.0,0.9687416507010325,1.4935879918696278,0.13116642699598652,-1.1599644722805211,-0.3898541920862165,-1.1006279516494186,-0.5048848436986723,1.0,1.0,1.0,0.0,-0.8453205889045387,-1.2569937105659874,1.1006279516494186,-1.2706633334028472,1.0,"[[6 6 6 6 6 5 5 5 5 5]
 [6 6 6 6 6 5 5 5 5 5]
 [3 6 6 6 6 5 5 5 5 2]
 [3 3 6 6 6 5 2 2 2 2]
 [3 3 3 3 2 2 2 2 2 2]
 [3 3 3 3 1 2 2 2 2 2]
 [3 3 3 1 1 1 2 2 2 4]
 [3 3 1 1 1 1 4 4 4 4]
 [3 3 1 1 1 1 4 4 4 4]
 [3 1 1 1 1 4 4 4 4 4]]","[[3 3 3 3 3 3 6 6 6 6]
 [1 3 3 3 3 3 6 6 6 6]
 [1 1 3 3 3 3 2 2 2 2]
 [1 1 1 1 3 2 2 2 2 2]
 [1 1 1 1 1 2 2 2 2 2]
 [1 1 1 1 4 4 2 2 2 2]
 [1 1 1 4 4 4 4 2 2 2]
 [1 1 4 4 4 4 5 5 5 2]
 [1 4 5 5 5 5 5 5 5 5]
 [5 5 5 5 5 5 5 5 5 5]]","[[2 1]
 [3 1]
 [4 1]
 [5 1]
 [6 1]
 [7 1]
 [8 1]
 [9 1]
 [3 2]
 [4 2]
 [5 2]
 [6 2]
 [7 2]
 [8 2]
 [4 3]
 [5 3]
 [6 3]
 [7 3]
 [4 4]
 [5 4]
 [6 4]
 [5 5]]",[190 193 196 199 202 205],0,[1.5   0.004 2.    1.   ],0.11571493790316055
eb,03-12-2022,26.0,26.0,1.0,-1.4138599647772758,2.0,1.0,0.0,8788.0,45331.0,3.0,0.4927168824689126,0.3110943650018087,-1.5142905424877153,0.6750594110977998,0.9182653256924271,1.3115728085024658,0.8904010379361199,1.0,1.0,1.0,0.0,0.6547286157890454,1.4485679570263148,-1.3115728085024658,1.2509944030584492,1.0,"[[5 5 5 5 1 1 1 1 1 1]
 [5 5 5 5 1 1 1 1 1 1]
 [5 5 5 3 3 1 1 1 1 1]
 [2 2 2 3 3 3 4 4 4 6]
 [2 2 2 2 3 3 4 4 6 6]
 [2 2 2 2 3 3 6 6 6 6]
 [2 2 2 2 2 6 6 6 6 6]
 [2 2 2 2 2 6 6 6 6 6]
 [2 2 2 2 2 6 6 6 6 6]
 [2 2 2 2 2 6 6 6 6 6]]","[[2 2 2 6 6 6 6 6 6 6]
 [2 2 2 6 6 6 6 6 6 3]
 [2 2 2 1 6 6 6 3 3 3]
 [2 1 1 1 1 3 3 3 3 3]
 [1 1 1 1 1 3 3 3 3 3]
 [1 1 1 1 4 3 3 3 3 3]
 [1 1 1 4 4 4 4 3 3 3]
 [5 5 5 4 4 4 4 4 4 3]
 [5 5 5 5 4 4 4 4 4 4]
 [5 5 5 5 5 4 4 4 4 4]]","[[ 1  4]
 [ 2  4]
 [ 1  5]
 [ 2  5]
 [ 3  5]
 [ 1  6]
 [ 2  6]
 [ 3  6]
 [ 1  7]
 [ 2  7]
 [ 3  7]
 [ 1  8]
 [ 2  8]
 [ 1  9]
 [ 2  9]
 [ 1 10]]",[190 193 196 199 202 205],0,[1.5   0.004 2.    1.   ],0.16711836167895508
eb,03-12-2022,27.0,27.0,1.0,0.0,2.0,0.0,0.0,64598.0,0.0,7.0,0.7641311675204991,1.0994234495803548,1.0714275524152448,-1.389342457702811,0.7158940076314996,-0.6145215337473904,2.267267102673291,1.0,1.0,1.0,1.0,-0.7054177936456172,-0.7344917868892152,0.6145215337473904,-0.7663317861105879,1.0,"[[1 1 1 1 5 5 5 3 3 3]
 [1 1 1 1 5 5 5 3 3 3]
 [1 1 1 1 1 5 5 5 3 3]
 [1 1 1 1 1 5 5 5 3 3]
 [2 2 2 1 6 6 6 5 3 3]
 [2 2 2 2 6 6 6 6 3 3]
 [2 2 2 2 4 4 4 4 4 3]
 [2 2 2 2 4 4 4 4 4 4]
 [2 2 2 4 4 4 4 4 4 4]
 [2 2 4 4 4 4 4 4 4 4]]","[[1 1 1 1 5 5 5 3 3 3]
 [1 1 1 1 5 5 5 3 3 3]
 [1 1 1 1 1 5 5 5 3 3]
 [1 1 1 1 1 5 5 5 3 3]
 [2 2 2 1 6 6 6 5 3 3]
 [2 2 2 2 6 6 6 6 3 3]
 [2 2 2 2 4 4 4 4 4 3]
 [2 2 2 2 4 4 4 4 4 4]
 [2 2 2 4 4 4 4 4 4 4]
 [2 2 4 4 4 4 4 4 4 4]]","[[ 5  1]
 [ 6  1]
 [ 7  1]
 [ 8  1]
 [ 9  1]
 [10  1]
 [ 5  2]
 [ 6  2]
 [ 7  2]
 [ 8  2]
 [ 9  2]
 [10  2]
 [ 5  3]
 [ 6  3]
 [ 7  3]
 [ 8  3]
 [ 9  3]
 [ 6  4]
 [ 7  4]
 [ 8  4]]",[190 193 196 199 202 205],0,[1.5   0.004 2.    1.   ],
eb,03-12-2022,28.0,28.0,1.0,-1.4138599647772758,2.0,1.0,1.0,57315.0,17965.0,3.0,0.49171864794864395,-1.0684815330106467,-0.10389885435882802,-0.47183051601365067,-1.7720663634480065,-1.5387593876695884,-0.5048848436986723,1.0,1.0,1.0,1.0,2.394125806270154,-1.2569937105659874,1.5387593876695884,-1.2706633334028472,1.0,"[[4 4 4 4 1 1 1 1 1 1]
 [4 4 4 4 1 1 1 1 1 5]
 [4 4 4 4 4 1 1 5 5 5]
 [3 3 3 4 4 5 5 5 5 5]
 [3 3 3 3 3 5 5 5 5 5]
 [3 3 3 3 3 5 5 5 5 5]
 [3 3 3 3 6 2 2 5 5 5]
 [3 3 6 6 6 2 2 2 2 2]
 [6 6 6 6 6 2 2 2 2 2]
 [6 6 6 6 6 6 2 2 2 2]]","[[6 6 6 3 3 3 3 3 3 3]
 [6 6 6 6 3 3 3 3 3 3]
 [6 6 6 6 3 3 3 3 3 4]
 [6 6 6 1 1 3 3 3 4 4]
 [6 6 6 1 1 1 4 4 4 4]
 [6 6 1 1 1 1 4 4 4 4]
 [6 5 5 5 5 5 4 4 4 4]
 [5 5 5 5 5 5 4 4 2 2]
 [5 5 5 5 5 5 2 2 2 2]
 [5 5 5 5 5 5 2 2 2 2]]","[[6 3]
 [4 4]
 [5 4]
 [6 4]
 [4 5]
 [5 5]
 [6 5]
 [5 6]
 [6 6]]",[190 193 196 199 202 205],0,[1.5   0.004 2.    1.   ],0.2623149172141263
eb,03-12-2022,29.0,29.0,1.0,0.7069299823886379,2.0,1.0,1.0,97293.0,13146.0,9.0,0.42344102990782834,-0.8713992618660102,-1.279225261132901,-0.2424525305913606,0.1516235055884461,-1.4455425573679697,-0.5048848436986723,1.0,1.0,1.0,1.0,1.7049012949381512,-1.2569937105659874,1.4455425573679697,-1.2706633334028472,1.0,"[[4 4 4 4 4 2 2 2 2 2]
 [4 4 4 4 4 2 2 2 2 1]
 [3 3 3 4 2 2 2 1 1 1]
 [3 3 3 3 3 2 1 1 1 1]
 [3 3 3 3 3 6 6 6 1 1]
 [3 3 3 3 3 6 6 6 6 6]
 [5 3 3 3 3 6 6 6 6 6]
 [5 5 5 3 6 6 6 6 6 6]
 [5 5 5 5 6 6 6 6 6 6]
 [5 5 5 5 5 6 6 6 6 6]]","[[6 6 1 1 1 4 4 4 4 4]
 [6 6 6 1 1 4 4 4 4 4]
 [6 6 6 6 1 1 4 4 4 4]
 [6 6 6 6 1 1 1 2 2 2]
 [6 6 6 6 6 2 2 2 2 2]
 [5 5 6 6 6 2 2 2 2 2]
 [5 5 5 5 5 2 2 2 2 2]
 [5 5 5 5 3 3 3 3 3 3]
 [5 5 5 5 3 3 3 3 3 3]
 [5 5 5 5 3 3 3 3 3 3]]","[[1 3]
 [1 4]
 [2 4]
 [1 5]
 [2 5]
 [3 5]
 [4 5]
 [3 6]
 [4 6]
 [4 7]]",[190 193 196 199 202 205],0,[1.5   0.004 2.    1.   ],0.24896020071797562
eb,03-12-2022,30.0,30.0,1.0,-0.7069299823886379,1.0,0.0,0.0,23427.0,0.0,4.0,2.806765714115533,0.11401209385717222,-1.279225261132901,-1.1599644722805211,1.0155209311014983,-1.3347893882435875,-0.5048848436986723,1.0,1.0,1.0,1.0,0.8860169945255326,-1.2569937105659874,1.3347893882435875,-1.2706633334028472,0.2,"[[1 1 1 1 1 3 3 3 3 3]
 [1 1 1 1 1 3 3 3 3 3]
 [1 1 1 1 5 3 3 3 3 3]
 [1 5 5 5 5 6 6 6 6 6]
 [5 5 5 5 5 6 6 6 6 6]
 [5 5 5 5 5 5 6 6 6 6]
 [2 2 2 5 5 4 4 4 4 4]
 [2 2 2 2 4 4 4 4 4 4]
 [2 2 2 2 4 4 4 4 4 4]
 [2 2 2 2 4 4 4 4 4 4]]","[[1 1 1 1 1 3 3 3 3 3]
 [1 1 1 1 1 3 3 3 3 3]
 [1 1 1 1 5 3 3 3 3 3]
 [1 5 5 5 5 6 6 6 6 6]
 [5 5 5 5 5 6 6 6 6 6]
 [5 5 5 5 5 5 6 6 6 6]
 [2 2 2 5 5 4 4 4 4 4]
 [2 2 2 2 4 4 4 4 4 4]
 [2 2 2 2 4 4 4 4 4 4]
 [2 2 2 2 4 4 4 4 4 4]]","[[1 1]
 [2 1]
 [3 1]
 [4 1]
 [1 2]
 [2 2]
 [3 2]
 [1 3]
 [2 3]
 [3 3]
 [1 4]
 [2 4]
 [3 4]
 [1 5]
 [2 5]]",[190 193 196 199 202 205],0,[1.5   0.004 2.    1.   ],
eb,03-12-2022,31.0,31.0,1.0,-0.7069299823886379,2.0,1.0,1.0,38924.0,14293.0,5.0,0.21982228866531797,-0.4772347195767373,0.3662317083508011,-0.7012085014359407,-1.3088790324297854,-1.3128794144387828,-0.5048848436986723,1.0,1.0,1.0,1.0,0.7240195211073518,-1.2569937105659874,1.3128794144387828,-1.2706633334028472,1.0,"[[5 5 5 5 5 6 6 6 6 6]
 [5 5 5 5 5 1 6 6 6 6]
 [5 5 5 5 5 1 1 6 6 6]
 [5 5 5 5 5 1 1 1 1 6]
 [2 2 2 2 2 1 1 1 1 1]
 [2 2 2 2 2 3 1 1 4 4]
 [2 2 2 3 3 3 4 4 4 4]
 [2 3 3 3 3 4 4 4 4 4]
 [3 3 3 3 3 4 4 4 4 4]
 [3 3 3 3 3 4 4 4 4 4]]","[[5 5 5 5 4 4 4 4 4 4]
 [5 5 5 5 5 4 4 4 4 4]
 [5 5 5 5 5 4 4 4 4 4]
 [5 5 5 6 6 6 6 4 4 4]
 [5 5 1 6 6 6 6 6 6 4]
 [1 1 1 1 1 1 6 6 2 2]
 [3 3 1 1 1 1 1 2 2 2]
 [3 3 3 3 3 3 2 2 2 2]
 [3 3 3 3 3 3 2 2 2 2]
 [3 3 3 3 3 2 2 2 2 2]]","[[6 1]
 [6 2]
 [5 3]
 [6 3]
 [7 3]
 [6 4]
 [7 4]
 [6 5]
 [7 5]
 [6 6]
 [7 6]
 [7 7]]",[190 193 196 199 202 205],0,[1.5   0.004 2.    1.   ],0.21881579359008327
eb,03-12-2022,32.0,32.0,1.0,0.0,1.0,0.0,1.0,71486.0,0.0,6.0,0.49197672809290854,0.11401209385717222,-1.279225261132901,0.6750594110977998,0.4643999094791639,1.2910941444966024,0.8935120471085274,1.0,1.0,1.0,0.0,0.806143302884755,1.4485679570263148,-1.2910941444966024,1.2509944030584492,0.2,"[[1 1 1 1 6 6 6 6 6 5]
 [1 1 1 1 6 6 6 6 5 5]
 [3 3 1 1 6 6 6 6 5 5]
 [3 3 3 3 3 6 6 5 5 5]
 [3 3 3 3 3 3 5 5 5 5]
 [4 3 3 3 3 3 2 5 5 5]
 [4 4 4 4 2 2 2 2 5 5]
 [4 4 4 4 2 2 2 2 2 5]
 [4 4 4 4 2 2 2 2 2 2]
 [4 4 4 2 2 2 2 2 2 2]]","[[1 1 1 1 6 6 6 6 6 5]
 [1 1 1 1 6 6 6 6 5 5]
 [3 3 1 1 6 6 6 6 5 5]
 [3 3 3 3 3 6 6 5 5 5]
 [3 3 3 3 3 3 5 5 5 5]
 [4 3 3 3 3 3 2 5 5 5]
 [4 4 4 4 2 2 2 2 5 5]
 [4 4 4 4 2 2 2 2 2 5]
 [4 4 4 4 2 2 2 2 2 2]
 [4 4 4 2 2 2 2 2 2 2]]","[[1 5]
 [2 5]
 [3 5]
 [1 6]
 [2 6]
 [3 6]
 [4 6]
 [1 7]
 [2 7]
 [3 7]
 [4 7]
 [1 8]
 [2 8]
 [3 8]
 [1 9]]",[190 193 196 199 202 205],0,[1.5   0.004 2.    1.   ],
eb,03-12-2022,33.0,33.0,1.0,-0.7069299823886379,2.0,1.0,1.0,17076.0,24913.0,4.0,2.1941922023840275,0.7052589072910818,0.13116642699598652,1.36319336736467,0.11023486947885848,1.3609713745958412,0.8852618459559989,1.0,1.0,1.0,1.0,0.28948660459810055,1.4485679570263148,-1.3609713745958412,1.2509944030584492,1.0,"[[4 4 4 4 4 4 5 5 5 5]
 [4 4 4 4 4 4 5 5 5 5]
 [4 4 4 4 4 3 5 5 5 5]
 [6 6 6 6 3 3 3 2 5 5]
 [6 6 6 6 3 3 3 2 2 2]
 [6 6 6 6 3 3 3 2 2 2]
 [1 1 1 1 1 3 3 2 2 2]
 [1 1 1 1 1 3 3 3 2 2]
 [1 1 1 1 1 1 3 3 2 2]
 [1 1 1 1 1 1 3 3 2 2]]","[[5 4 4 2 2 2 2 2 2 2]
 [5 5 4 4 2 2 2 2 2 6]
 [5 5 4 4 4 4 2 2 6 6]
 [5 5 5 4 4 4 4 6 6 6]
 [5 5 5 5 4 4 6 6 6 6]
 [5 5 5 5 1 1 1 6 6 6]
 [3 3 3 1 1 1 1 1 6 6]
 [3 3 3 3 1 1 1 1 6 6]
 [3 3 3 3 1 1 1 1 1 6]
 [3 3 3 3 1 1 1 1 1 1]]","[[ 5  7]
 [ 4  8]
 [ 5  8]
 [ 6  8]
 [ 3  9]
 [ 4  9]
 [ 5  9]
 [ 6  9]
 [ 7  9]
 [ 8  9]
 [ 2 10]
 [ 3 10]
 [ 4 10]
 [ 5 10]
 [ 6 10]
 [ 7 10]
 [ 8 10]
 [ 9 10]]",[190 193 196 199 202 205],0,[1.5   0.004 2.    1.   ],0.1484999897707517
eb,03-12-2022,34.0,34.0,1.0,-1.4138599647772758,2.0,1.0,0.0,2859.0,13035.0,3.0,0.21957557053998328,1.4935879918696278,-1.5142905424877153,-0.013074545169070535,0.6103239310439335,0.8456645926721651,5.026202572815265,1.0,1.0,1.0,0.0,0.09715847437070456,0.8885195512674343,-0.8456645926721651,0.74666285576619,1.0,"[[5 3 3 3 3 3 1 1 1 1]
 [5 5 3 3 3 3 1 1 1 1]
 [5 5 5 3 3 3 1 1 1 1]
 [5 5 5 5 3 3 4 4 4 1]
 [5 5 5 5 2 4 4 4 4 4]
 [2 2 2 2 2 2 4 4 4 4]
 [2 2 2 2 2 6 6 4 4 4]
 [2 2 2 2 6 6 6 6 4 4]
 [2 2 2 6 6 6 6 6 6 4]
 [2 2 6 6 6 6 6 6 6 6]]","[[5 5 5 5 5 5 5 5 5 5]
 [5 5 5 5 5 5 5 5 1 1]
 [2 2 5 5 5 5 1 1 1 1]
 [2 2 2 2 2 1 1 1 1 1]
 [3 2 2 2 2 1 1 1 1 1]
 [3 3 3 3 2 6 6 6 4 4]
 [3 3 3 3 3 6 6 4 4 4]
 [3 3 3 3 3 4 4 4 4 4]
 [3 3 3 3 3 4 4 4 4 4]
 [3 3 3 3 4 4 4 4 4 4]]","[[ 1  1]
 [ 2  1]
 [ 1  2]
 [ 2  2]
 [ 1  3]
 [ 2  3]
 [ 3  3]
 [ 1  4]
 [ 2  4]
 [ 3  4]
 [ 1  5]
 [ 2  5]
 [ 3  5]
 [ 1  6]
 [ 2  6]
 [ 3  6]
 [ 1  7]
 [ 2  7]
 [ 1  8]
 [ 2  8]
 [ 1  9]
 [ 1 10]]",[190 193 196 199 202 205],0,[1.5   0.004 2.    1.   ],0.13382145857671227
eb,03-12-2022,35.0,35.0,1.0,1.4138599647772758,2.0,1.0,1.0,40719.0,25556.0,10.0,3.419404151669495,0.5081766361464453,-0.3389641357136426,0.9044373965200898,-0.6538332269844213,0.710718443964576,2.2802312510813993,1.0,1.0,1.0,1.0,1.094920285174463,0.8885195512674433,-0.710718443964576,0.74666285576619,1.0,"[[3 3 3 3 3 4 4 4 4 4]
 [3 3 3 3 3 4 4 4 4 4]
 [3 3 3 3 3 4 4 4 4 4]
 [5 5 5 5 5 4 4 4 4 6]
 [5 5 5 5 5 6 6 6 6 6]
 [5 5 5 5 5 6 6 6 6 6]
 [5 5 5 5 2 2 2 2 2 6]
 [1 1 1 1 1 2 2 2 2 2]
 [1 1 1 1 1 2 2 2 2 2]
 [1 1 1 1 1 1 2 2 2 2]]","[[2 2 2 2 2 2 1 1 1 1]
 [2 2 2 2 2 5 1 1 1 1]
 [2 2 2 2 2 5 5 1 1 1]
 [2 2 6 4 5 5 5 5 1 1]
 [6 6 6 4 4 5 5 5 5 1]
 [6 6 6 4 4 4 5 5 5 1]
 [6 6 6 4 4 4 4 5 5 5]
 [6 6 6 6 4 4 3 3 3 3]
 [6 6 6 6 3 3 3 3 3 3]
 [6 6 6 3 3 3 3 3 3 3]]","[[ 4  5]
 [ 2  6]
 [ 3  6]
 [ 4  6]
 [ 5  6]
 [ 3  7]
 [ 4  7]
 [ 5  7]
 [ 6  7]
 [ 4  8]
 [ 5  8]
 [ 6  8]
 [ 7  8]
 [ 5  9]
 [ 6  9]
 [ 7  9]
 [ 7 10]]",[190 193 196 199 202 205],0,[1.5   0.004 2.    1.   ],0.14084642252797835
eb,03-12-2022,36.0,36.0,1.0,1.4138599647772758,1.0,0.0,0.0,95663.0,0.0,10.0,3.0113372418025923,0.9023411784357183,0.3662317083508011,0.9044373965200898,-0.8283794768627742,-0.7988504278315584,2.2711146436593728,1.0,1.0,1.0,1.0,0.6574690534876406,-0.7344917868892152,0.7988504278315584,-0.7663317861105879,0.2,"[[1 1 1 1 6 6 6 6 6 6]
 [1 1 1 1 1 6 6 6 6 6]
 [1 1 1 1 1 6 6 6 6 6]
 [3 3 3 3 3 2 2 2 2 2]
 [3 3 3 3 3 2 2 2 2 2]
 [3 3 3 3 2 2 2 2 2 4]
 [3 3 3 3 2 2 2 4 4 4]
 [5 5 5 5 5 2 4 4 4 4]
 [5 5 5 5 5 4 4 4 4 4]
 [5 5 5 5 5 5 4 4 4 4]]","[[1 1 1 1 6 6 6 6 6 6]
 [1 1 1 1 1 6 6 6 6 6]
 [1 1 1 1 1 6 6 6 6 6]
 [3 3 3 3 3 2 2 2 2 2]
 [3 3 3 3 3 2 2 2 2 2]
 [3 3 3 3 2 2 2 2 2 4]
 [3 3 3 3 2 2 2 4 4 4]
 [5 5 5 5 5 2 4 4 4 4]
 [5 5 5 5 5 4 4 4 4 4]
 [5 5 5 5 5 5 4 4 4 4]]","[[ 6  5]
 [ 7  5]
 [ 4  6]
 [ 5  6]
 [ 6  6]
 [ 7  6]
 [ 8  6]
 [ 4  7]
 [ 5  7]
 [ 6  7]
 [ 7  7]
 [ 4  8]
 [ 5  8]
 [ 6  8]
 [ 4  9]
 [ 5  9]
 [ 6  9]
 [ 4 10]
 [ 5 10]]",[190 193 196 199 202 205],0,[1.5   0.004 2.    1.   ],
eb,03-12-2022,37.0,37.0,1.0,1.4138599647772758,2.0,1.0,0.0,76274.0,22486.0,10.0,0.42466650480669477,-0.6743169907213737,0.13116642699598652,-0.7012085014359407,-1.3900323152163665,-0.20833540055007682,2.328954178263177,1.0,1.0,1.0,0.0,0.0907439589143306,-0.20284607954809,0.20833540055007682,-0.2620002388183286,1.0,"[[6 6 6 6 6 2 2 2 2 2]
 [6 6 6 6 2 2 2 2 2 2]
 [6 6 6 6 3 2 2 2 2 2]
 [6 6 6 3 3 3 2 2 2 2]
 [6 3 3 3 3 5 5 5 4 4]
 [3 3 3 3 3 5 5 5 4 4]
 [1 1 1 1 1 5 5 4 4 4]
 [1 1 1 1 1 1 4 4 4 4]
 [1 1 1 1 1 1 4 4 4 4]
 [1 1 1 1 1 1 4 4 4 4]]","[[6 6 6 6 6 2 2 2 2 2]
 [6 6 6 6 2 2 2 2 2 2]
 [6 6 6 6 2 2 2 5 5 5]
 [6 6 6 3 2 5 5 5 5 5]
 [4 3 3 3 3 5 5 5 5 5]
 [4 4 3 3 3 3 1 1 1 1]
 [4 4 4 4 3 3 1 1 1 1]
 [4 4 4 4 4 1 1 1 1 1]
 [4 4 4 4 4 1 1 1 1 1]
 [4 4 4 4 4 1 1 1 1 1]]","[[5 2]
 [5 3]
 [6 3]
 [4 4]
 [5 4]
 [6 4]
 [5 5]
 [6 5]
 [7 5]
 [6 6]
 [7 6]]",[190 193 196 199 202 205],0,[1.5   0.004 2.    1.   ],0.1998505806482992
eb,03-12-2022,38.0,38.0,1.0,1.4138599647772758,1.0,0.0,1.0,12587.0,0.0,10.0,0.5605530049170241,-0.6743169907213737,2.0116886778345027,0.9044373965200898,1.5826330459427491,-1.3553565413817186,-0.5048848436986723,1.0,1.0,1.0,0.0,1.0380859505847766,-1.2569937105659874,1.3553565413817186,-1.2706633334028472,0.2,"[[3 3 3 3 3 3 4 4 4 4]
 [3 3 3 3 3 4 4 4 4 4]
 [3 3 3 3 4 4 4 4 4 4]
 [6 6 6 6 4 4 4 4 2 2]
 [6 6 6 6 6 4 4 2 2 2]
 [5 6 6 6 6 2 2 2 2 2]
 [5 5 5 6 6 2 2 2 2 2]
 [5 5 5 5 5 2 2 2 2 2]
 [5 5 5 5 5 1 1 1 1 1]
 [5 5 5 5 1 1 1 1 1 1]]","[[3 3 3 3 3 3 4 4 4 4]
 [3 3 3 3 3 4 4 4 4 4]
 [3 3 3 3 4 4 4 4 4 4]
 [6 6 6 6 4 4 4 4 2 2]
 [6 6 6 6 6 4 4 2 2 2]
 [5 6 6 6 6 2 2 2 2 2]
 [5 5 5 6 6 2 2 2 2 2]
 [5 5 5 5 5 2 2 2 2 2]
 [5 5 5 5 5 1 1 1 1 1]
 [5 5 5 5 1 1 1 1 1 1]]","[[10  5]
 [ 9  6]
 [10  6]
 [ 9  7]
 [10  7]
 [ 9  8]
 [10  8]
 [ 9  9]
 [10  9]
 [ 9 10]
 [10 10]]",[190 193 196 199 202 205],0,[1.5   0.004 2.    1.   ],
eb,03-12-2022,39.0,39.0,1.0,0.7069299823886379,1.0,0.0,0.0,63730.0,0.0,8.0,0.5604020523798127,2.873163889882083,0.8363622710604302,-1.1599644722805211,0.025695761212690807,-0.36389753103660777,2.2449006524775426,1.0,1.0,1.0,1.0,1.2409357538878023,-0.20284607954807213,0.36389753103660777,-0.2620002388183286,0.2,"[[5 5 5 5 5 6 6 6 6 6]
 [5 5 5 5 6 6 6 6 6 6]
 [5 5 5 5 6 6 6 6 6 6]
 [3 3 3 3 3 6 6 6 6 6]
 [3 3 3 3 3 1 2 2 2 2]
 [3 3 3 3 3 1 2 2 2 2]
 [3 3 3 3 1 1 2 2 2 2]
 [3 3 3 3 1 1 1 4 4 4]
 [3 3 3 1 1 1 4 4 4 4]
 [3 3 3 1 1 1 4 4 4 4]]","[[5 5 5 5 5 6 6 6 6 6]
 [5 5 5 5 6 6 6 6 6 6]
 [5 5 5 5 6 6 6 6 6 6]
 [3 3 3 3 3 6 6 6 6 6]
 [3 3 3 3 3 1 2 2 2 2]
 [3 3 3 3 3 1 2 2 2 2]
 [3 3 3 3 1 1 2 2 2 2]
 [3 3 3 3 1 1 1 4 4 4]
 [3 3 3 1 1 1 4 4 4 4]
 [3 3 3 1 1 1 4 4 4 4]]","[[ 4  1]
 [ 5  1]
 [ 6  1]
 [ 7  1]
 [ 8  1]
 [ 9  1]
 [10  1]
 [ 4  2]
 [ 5  2]
 [ 6  2]
 [ 7  2]
 [ 8  2]
 [ 9  2]
 [10  2]
 [ 4  3]
 [ 5  3]
 [ 6  3]
 [ 7  3]
 [ 8  3]
 [ 9  3]
 [10  3]
 [ 4  4]
 [ 5  4]
 [ 6  4]
 [ 7  4]
 [ 8  4]
 [ 4  5]
 [ 5  5]
 [ 6  5]]",[190 193 196 199 202 205],0,[1.5   0.004 2.    1.   ],
eb,03-12-2022,40.0,40.0,1.0,1.4138599647772758,1.0,1.0,1.0,8736.0,24864.0,10.0,-0.3251423409966738,-1.0684815330106467,-0.3389641357136426,-0.930586486858231,-0.6538332269844213,0.41973111073397884,0.9280455654385631,1.0,1.0,1.0,1.0,-0.6871387522637434,0.33810342767151835,-0.41973111073397884,0.24233130847393067,0.2,"[[3 3 3 3 5 5 5 5 5 5]
 [3 3 3 3 5 5 5 5 5 1]
 [3 3 3 3 5 5 5 5 1 1]
 [2 2 2 2 5 5 1 1 1 1]
 [2 2 2 2 2 1 1 1 1 1]
 [2 2 2 2 4 4 1 1 1 1]
 [2 2 2 4 4 4 6 6 6 6]
 [2 4 4 4 4 4 6 6 6 6]
 [4 4 4 4 4 4 6 6 6 6]
 [4 4 4 4 4 4 6 6 6 6]]","[[6 6 6 3 3 3 3 3 3 3]
 [6 6 6 6 3 3 3 3 3 2]
 [6 6 6 4 3 3 3 2 2 2]
 [6 6 4 4 4 2 2 2 2 2]
 [6 4 4 4 4 2 2 2 2 2]
 [1 1 1 4 2 2 2 2 2 2]
 [1 1 1 1 1 2 2 2 2 2]
 [1 1 1 1 5 5 5 2 2 2]
 [1 1 1 5 5 5 5 5 5 2]
 [1 1 1 5 5 5 5 5 5 5]]","[[5 2]
 [4 3]
 [5 3]
 [3 4]
 [4 4]
 [5 4]
 [6 4]
 [4 5]
 [5 5]]",[190 193 196 199 202 205],0,[1.5   0.004 2.    1.   ],0.2191915477291319
eb,03-12-2022,41.0,41.0,1.0,1.4138599647772758,1.0,1.0,1.0,96429.0,16491.0,10.0,0.3559473911731749,-0.8713992618660102,0.6012969897056156,0.21630344025321954,-1.7720663634480065,0.2583454495643753,0.9191728460157476,1.0,1.0,1.0,1.0,0.5061109333960847,0.33810342767151835,-0.2583454495643753,0.24233130847393067,0.2,"[[6 6 6 6 6 6 3 3 3 3]
 [6 6 6 6 6 3 3 3 3 3]
 [4 4 4 4 6 3 3 3 3 3]
 [4 4 4 4 4 3 3 3 3 3]
 [4 4 4 4 4 2 2 3 3 3]
 [4 4 4 4 2 2 2 2 1 1]
 [5 5 5 5 2 2 2 2 1 1]
 [5 5 5 5 2 2 2 1 1 1]
 [5 5 5 5 2 2 2 1 1 1]
 [5 5 5 5 5 2 2 1 1 1]]","[[6 6 6 6 6 6 5 5 5 5]
 [6 6 6 6 6 6 5 5 5 5]
 [3 3 3 6 6 5 5 5 5 5]
 [3 3 3 3 3 5 5 5 5 5]
 [3 3 3 3 3 4 5 5 5 5]
 [3 3 3 3 4 4 4 4 1 1]
 [3 3 3 4 4 4 4 1 1 1]
 [2 2 2 2 2 4 1 1 1 1]
 [2 2 2 2 2 2 1 1 1 1]
 [2 2 2 2 2 2 2 1 1 1]]","[[7 4]
 [6 5]
 [7 5]
 [5 6]
 [6 6]
 [7 6]
 [8 6]
 [6 7]
 [7 7]
 [6 8]]",[190 193 196 199 202 205],0,[1.5   0.004 2.    1.   ],0.20410142507194837
eb,03-12-2022,42.0,42.0,1.0,1.4138599647772758,1.0,1.0,0.0,11161.0,38749.0,10.0,2.126175910778599,-0.4772347195767373,0.13116642699598652,0.9044373965200898,-0.8899432536512916,1.3537708492567813,0.9061674805439484,1.0,1.0,1.0,0.0,0.34272568752002885,1.4485679570263148,-1.3537708492567813,1.2509944030584492,0.2,"[[2 2 2 2 2 2 5 5 5 5]
 [3 2 2 2 2 2 5 5 5 5]
 [3 3 3 2 2 2 4 4 4 5]
 [3 3 3 3 3 4 4 4 4 4]
 [3 3 3 3 3 4 4 4 4 4]
 [6 3 3 3 3 1 4 4 4 4]
 [6 6 6 6 1 1 1 1 1 1]
 [6 6 6 6 1 1 1 1 1 1]
 [6 6 6 1 1 1 1 1 1 1]
 [6 6 6 1 1 1 1 1 1 1]]","[[4 4 4 4 4 4 5 5 5 5]
 [4 4 4 4 4 5 5 5 5 5]
 [4 4 4 4 4 5 5 5 5 5]
 [1 1 1 1 6 5 5 5 5 5]
 [1 1 1 1 1 6 6 6 6 6]
 [1 1 1 1 1 6 6 6 6 3]
 [2 2 2 2 2 6 6 3 3 3]
 [2 2 2 2 2 3 3 3 3 3]
 [2 2 2 2 2 3 3 3 3 3]
 [2 2 2 2 2 3 3 3 3 3]]","[[ 4  5]
 [ 5  6]
 [ 6  6]
 [ 7  6]
 [ 5  7]
 [ 6  7]
 [ 7  7]
 [ 5  8]
 [ 6  8]
 [ 5  9]
 [ 6  9]
 [ 5 10]]",[190 193 196 199 202 205],0,[1.5   0.004 2.    1.   ],0.20992166511602034
eb,03-12-2022,43.0,43.0,1.0,1.4138599647772758,2.0,1.0,1.0,59532.0,28558.0,10.0,0.9686994489164358,-0.6743169907213737,0.13116642699598652,-0.013074545169070535,-2.8902994999115914,-0.14791303143607196,2.328954178263177,1.0,1.0,1.0,1.0,-0.3560056000588059,-0.20284607954809,0.14791303143607196,-0.2620002388183286,1.0,"[[4 4 4 4 4 2 2 2 2 2]
 [4 4 4 4 4 2 2 2 2 2]
 [4 4 4 4 4 5 5 5 5 5]
 [4 4 4 4 4 5 5 5 5 5]
 [3 3 3 3 3 5 5 5 5 5]
 [3 3 3 3 3 1 1 1 1 1]
 [3 3 3 3 3 1 1 1 1 1]
 [6 3 3 3 3 1 1 1 1 1]
 [6 6 6 6 6 1 1 1 1 1]
 [6 6 6 6 6 6 1 1 1 1]]","[[6 6 6 6 1 1 1 1 1 1]
 [6 6 6 5 5 1 1 1 1 1]
 [6 6 5 5 5 1 1 1 1 1]
 [6 5 5 5 3 3 3 4 4 4]
 [5 5 5 3 3 3 4 4 4 4]
 [2 2 2 3 3 3 4 4 4 4]
 [2 2 2 2 3 3 4 4 4 4]
 [2 2 2 2 2 4 4 4 4 4]
 [2 2 2 2 2 2 4 4 4 4]
 [2 2 2 2 2 2 4 4 4 4]]","[[5 4]
 [6 4]
 [4 5]
 [5 5]
 [6 5]
 [7 5]
 [4 6]
 [5 6]
 [6 6]
 [7 6]
 [4 7]]",[190 193 196 199 202 205],0,[1.5   0.004 2.    1.   ],0.218446011962357
eb,03-12-2022,44.0,44.0,1.0,1.4138599647772758,1.0,0.0,1.0,95146.0,0.0,10.0,0.01510630102329281,1.2965057207249913,-0.8090946984232718,-0.47183051601365067,-0.6538332269844213,0.2393321738644611,-0.5048848436986723,1.0,1.0,1.0,0.0,0.6466908652677164,0.3381034276715139,-0.2393321738644611,0.24233130847393067,0.2,"[[2 2 2 2 4 4 6 6 6 6]
 [2 2 2 4 4 4 6 6 6 6]
 [2 2 4 4 4 4 6 6 6 6]
 [3 4 4 4 4 4 4 6 6 5]
 [3 3 3 4 4 4 4 5 5 5]
 [3 3 3 3 4 4 5 5 5 5]
 [3 3 3 3 3 3 5 5 5 5]
 [3 3 3 3 3 1 1 1 1 5]
 [3 3 3 3 3 1 1 1 1 1]
 [3 3 3 3 1 1 1 1 1 1]]","[[2 2 2 2 4 4 6 6 6 6]
 [2 2 2 4 4 4 6 6 6 6]
 [2 2 4 4 4 4 6 6 6 6]
 [3 4 4 4 4 4 4 6 6 5]
 [3 3 3 4 4 4 4 5 5 5]
 [3 3 3 3 4 4 5 5 5 5]
 [3 3 3 3 3 3 5 5 5 5]
 [3 3 3 3 3 1 1 1 1 5]
 [3 3 3 3 3 1 1 1 1 1]
 [3 3 3 3 1 1 1 1 1 1]]","[[4 2]
 [3 3]
 [4 3]
 [2 4]
 [3 4]
 [4 4]
 [5 4]
 [1 5]
 [2 5]
 [3 5]
 [4 5]
 [5 5]
 [6 5]
 [1 6]
 [2 6]
 [3 6]
 [4 6]
 [5 6]
 [6 6]
 [4 7]
 [5 7]]",[190 193 196 199 202 205],0,[1.5   0.004 2.    1.   ],
eb,03-12-2022,45.0,45.0,1.0,0.0,1.0,0.0,0.0,7996.0,0.0,7.0,1.24118014060187,1.4935879918696278,1.3064928337700592,-1.1599644722805211,0.6458641663872224,0.794236884858499,5.026202572815265,1.0,1.0,1.0,1.0,0.4774035081495833,0.8885195512674343,-0.794236884858499,0.74666285576619,0.2,"[[3 3 3 3 3 3 4 4 4 4]
 [3 3 3 3 3 3 4 4 4 4]
 [2 2 3 3 3 3 4 4 4 4]
 [2 2 2 2 2 3 6 6 6 6]
 [2 2 2 2 2 6 6 6 6 6]
 [5 5 5 5 5 1 6 6 6 6]
 [5 5 5 5 5 1 1 1 6 6]
 [5 5 5 5 1 1 1 1 1 1]
 [5 5 5 5 1 1 1 1 1 1]
 [5 5 5 5 1 1 1 1 1 1]]","[[3 3 3 3 3 3 4 4 4 4]
 [3 3 3 3 3 3 4 4 4 4]
 [2 2 3 3 3 3 4 4 4 4]
 [2 2 2 2 2 3 6 6 6 6]
 [2 2 2 2 2 6 6 6 6 6]
 [5 5 5 5 5 1 6 6 6 6]
 [5 5 5 5 5 1 1 1 6 6]
 [5 5 5 5 1 1 1 1 1 1]
 [5 5 5 5 1 1 1 1 1 1]
 [5 5 5 5 1 1 1 1 1 1]]","[[ 6  1]
 [ 7  1]
 [ 8  1]
 [ 9  1]
 [10  1]
 [ 6  2]
 [ 7  2]
 [ 8  2]
 [ 9  2]
 [10  2]
 [ 6  3]
 [ 7  3]
 [ 8  3]
 [ 9  3]
 [10  3]
 [ 6  4]
 [ 7  4]
 [ 8  4]
 [ 9  4]
 [10  4]
 [ 6  5]
 [ 7  5]]",[190 193 196 199 202 205],0,[1.5   0.004 2.    1.   ],
eb,03-12-2022,46.0,46.0,1.0,-1.4138599647772758,1.0,0.0,0.0,84497.0,0.0,2.0,2.8750595636119627,0.7052589072910818,-1.5142905424877153,-0.930586486858231,1.1415474115307847,-1.30064586566227,-0.5048848436986723,1.0,1.0,1.0,1.0,0.6335673822600402,-1.2569937105659874,1.30064586566227,-1.2706633334028472,0.2,"[[1 1 1 1 1 1 5 5 5 5]
 [1 1 1 1 1 1 5 5 5 5]
 [1 1 1 1 1 1 5 5 5 5]
 [6 6 6 6 6 4 4 5 5 5]
 [6 6 6 6 6 4 4 4 3 3]
 [6 6 6 6 6 4 4 4 3 3]
 [6 6 6 6 6 4 4 3 3 3]
 [2 2 2 2 2 4 4 3 3 3]
 [2 2 2 2 2 2 4 3 3 3]
 [2 2 2 2 2 2 2 3 3 3]]","[[1 1 1 1 1 1 5 5 5 5]
 [1 1 1 1 1 1 5 5 5 5]
 [1 1 1 1 1 1 5 5 5 5]
 [6 6 6 6 6 4 4 5 5 5]
 [6 6 6 6 6 4 4 4 3 3]
 [6 6 6 6 6 4 4 4 3 3]
 [6 6 6 6 6 4 4 3 3 3]
 [2 2 2 2 2 4 4 3 3 3]
 [2 2 2 2 2 2 4 3 3 3]
 [2 2 2 2 2 2 2 3 3 3]]","[[1 1]
 [2 1]
 [3 1]
 [1 2]
 [2 2]
 [3 2]
 [1 3]
 [2 3]
 [3 3]
 [1 4]
 [2 4]
 [3 4]
 [1 5]
 [2 5]
 [3 5]
 [1 6]
 [2 6]
 [3 6]]",[190 193 196 199 202 205],0,[1.5   0.004 2.    1.   ],
eb,03-12-2022,47.0,47.0,1.0,-1.4138599647772758,1.0,1.0,0.0,30798.0,27285.0,2.0,1.1730210121870377,0.3110943650018087,0.8363622710604302,1.59257135278696,0.9182653256924271,-1.436249896338695,-0.5048848436986723,1.0,1.0,1.0,0.0,1.636193426024864,-1.2569937105659874,1.436249896338695,-1.2706633334028472,0.2,"[[5 5 5 5 5 5 2 2 2 2]
 [5 5 5 5 5 5 2 2 2 2]
 [4 5 5 5 5 5 6 2 2 2]
 [4 4 5 5 5 5 6 6 2 2]
 [4 4 4 5 5 6 6 6 6 2]
 [4 4 4 4 5 6 6 6 6 6]
 [4 4 4 4 3 3 3 6 6 6]
 [4 1 1 3 3 3 3 3 3 6]
 [1 1 1 1 3 3 3 3 3 3]
 [1 1 1 1 1 3 3 3 3 3]]","[[2 2 2 3 3 3 3 3 3 3]
 [5 2 2 2 3 3 3 3 3 3]
 [5 5 2 2 2 3 3 3 3 4]
 [5 5 5 2 2 4 4 4 4 1]
 [5 5 5 5 4 4 4 4 4 1]
 [5 5 5 5 4 4 4 4 1 1]
 [5 5 5 6 6 4 4 1 1 1]
 [5 6 6 6 6 6 6 1 1 1]
 [6 6 6 6 6 6 6 1 1 1]
 [6 6 6 6 6 6 6 1 1 1]]","[[ 7  8]
 [ 8  8]
 [ 9  8]
 [10  8]
 [ 6  9]
 [ 7  9]
 [ 8  9]
 [ 9  9]
 [10  9]
 [ 4 10]
 [ 5 10]
 [ 6 10]
 [ 7 10]
 [ 8 10]
 [ 9 10]
 [10 10]]",[190 193 196 199 202 205],0,[1.5   0.004 2.    1.   ],0.15857125214871737
eb,03-12-2022,48.0,48.0,1.0,-0.7069299823886379,2.0,0.0,0.0,42311.0,0.0,4.0,0.8325792158452631,0.5081766361464453,-0.5740294170684572,1.1338153819423797,0.025695761212690807,-1.2996455477218514,-0.5048848436986723,1.0,1.0,1.0,1.0,0.6261712538846098,-1.2569937105659874,1.2996455477218514,-1.2706633334028472,1.0,"[[5 5 5 5 5 4 4 4 4 4]
 [5 5 5 5 5 4 4 4 4 1]
 [5 5 5 5 5 1 1 1 1 1]
 [5 5 5 5 6 1 1 1 1 1]
 [6 6 6 6 6 6 1 1 1 1]
 [6 6 6 6 6 3 3 3 1 1]
 [6 6 6 6 2 3 3 3 3 3]
 [6 2 2 2 2 3 3 3 3 3]
 [2 2 2 2 2 3 3 3 3 3]
 [2 2 2 2 2 3 3 3 3 3]]","[[5 5 5 5 5 4 4 4 4 4]
 [5 5 5 5 5 4 4 4 4 1]
 [5 5 5 5 5 1 1 1 1 1]
 [5 5 5 5 6 1 1 1 1 1]
 [6 6 6 6 6 6 1 1 1 1]
 [6 6 6 6 6 3 3 3 1 1]
 [6 6 6 6 2 3 3 3 3 3]
 [6 2 2 2 2 3 3 3 3 3]
 [2 2 2 2 2 3 3 3 3 3]
 [2 2 2 2 2 3 3 3 3 3]]","[[ 3  6]
 [ 4  6]
 [ 3  7]
 [ 4  7]
 [ 5  7]
 [ 3  8]
 [ 4  8]
 [ 5  8]
 [ 3  9]
 [ 4  9]
 [ 5  9]
 [ 6  9]
 [ 2 10]
 [ 3 10]
 [ 4 10]
 [ 5 10]
 [ 6 10]]",[190 193 196 199 202 205],0,[1.5   0.004 2.    1.   ],
eb,03-12-2022,49.0,49.0,1.0,1.4138599647772758,1.0,0.0,0.0,65303.0,0.0,11.0,1.922109181361139,-1.4626460752999197,-0.8090946984232718,0.21630344025321954,-0.8283794768627742,-0.07559638669549502,0.9543400597403108,1.0,1.0,1.0,1.0,-0.8906987876647101,-0.20284607954808553,0.07559638669549502,-0.2620002388183286,0.2,"[[1 1 1 1 1 1 5 5 5 5]
 [1 1 1 1 1 1 5 5 5 5]
 [1 1 1 1 1 3 3 5 5 5]
 [1 1 1 3 3 3 3 3 5 5]
 [4 4 6 6 6 6 6 2 2 2]
 [4 4 4 6 6 6 2 2 2 2]
 [4 4 4 4 4 2 2 2 2 2]
 [4 4 4 4 4 2 2 2 2 2]
 [4 4 4 4 4 2 2 2 2 2]
 [4 4 4 4 4 4 2 2 2 2]]","[[1 1 1 1 1 1 5 5 5 5]
 [1 1 1 1 1 1 5 5 5 5]
 [1 1 1 1 1 3 3 5 5 5]
 [1 1 1 3 3 3 3 3 5 5]
 [4 4 6 6 6 6 6 2 2 2]
 [4 4 4 6 6 6 2 2 2 2]
 [4 4 4 4 4 2 2 2 2 2]
 [4 4 4 4 4 2 2 2 2 2]
 [4 4 4 4 4 2 2 2 2 2]
 [4 4 4 4 4 4 2 2 2 2]]","[[4 4]
 [4 5]
 [3 6]
 [4 6]
 [3 7]
 [4 7]
 [4 8]]",[190 193 196 199 202 205],0,[1.5   0.004 2.    1.   ],
eb,03-12-2022,50.0,50.0,1.0,-1.4138599647772758,1.0,1.0,,16506.0,26941.0,3.0,,-0.6743169907213737,0.13116642699598652,1.36319336736467,0.11023486947885848,-1.3818718304744504,-0.5048848436986723,1.0,1.0,1.0,0.0,1.2341341009953088,-1.2569937105659874,1.3818718304744504,-1.2706633334028472,0.2,"[[2 2 2 2 2 6 6 6 6 6]
 [2 2 2 2 2 6 6 6 6 6]
 [1 1 2 2 2 6 6 6 6 6]
 [1 1 1 1 3 3 3 6 6 6]
 [1 1 1 1 3 3 3 3 3 5]
 [1 1 1 1 3 3 3 5 5 5]
 [4 4 4 4 4 3 5 5 5 5]
 [4 4 4 4 4 5 5 5 5 5]
 [4 4 4 4 4 5 5 5 5 5]
 [4 4 4 4 4 5 5 5 5 5]]","[[3 3 3 3 5 5 5 5 5 5]
 [3 3 3 3 3 5 5 5 5 5]
 [3 3 3 3 3 5 5 5 5 5]
 [4 4 3 3 3 3 5 5 1 1]
 [4 4 4 4 4 4 1 1 1 1]
 [4 4 4 4 4 4 6 1 1 1]
 [2 4 4 4 4 6 6 6 1 1]
 [2 2 2 2 2 6 6 6 6 6]
 [2 2 2 2 2 2 6 6 6 6]
 [2 2 2 2 2 2 6 6 6 6]]","[[ 5  7]
 [ 5  8]
 [ 6  8]
 [ 4  9]
 [ 5  9]
 [ 6  9]
 [ 7  9]
 [ 4 10]
 [ 5 10]
 [ 6 10]
 [ 7 10]]",[190 193 196 199 202 205],0,[1.5   0.004 2.    1.   ],0.2158930988316049
eb,03-12-2022,51.0,51.0,1.0,-1.4138599647772758,1.0,1.0,1.0,48077.0,269.0,3.0,0.2199294162723712,-1.0684815330106467,0.6012969897056156,0.4456814256755096,-1.4758340333920659,1.5056190330746453,0.9280455654385631,1.0,1.0,1.0,1.0,-0.7800060117866574,1.4485679570263148,-1.5056190330746453,1.2509944030584492,0.2,"[[6 6 6 6 2 2 2 2 2 2]
 [6 6 6 6 2 2 2 2 2 4]
 [6 6 6 6 6 2 2 2 4 4]
 [6 6 6 6 6 2 4 4 4 4]
 [6 3 3 3 3 1 4 4 4 4]
 [3 3 3 3 3 1 1 4 4 4]
 [5 5 5 5 1 1 1 1 4 4]
 [5 5 5 5 1 1 1 1 4 4]
 [5 5 5 5 5 1 1 1 1 4]
 [5 5 5 5 5 1 1 1 1 1]]","[[5 5 5 5 5 4 4 4 4 4]
 [5 5 5 5 4 4 4 4 4 4]
 [5 5 3 3 3 4 4 4 4 4]
 [3 3 3 3 3 3 4 4 4 4]
 [3 3 3 3 3 3 6 6 4 4]
 [2 3 3 3 3 6 6 6 1 1]
 [2 2 2 2 6 6 6 1 1 1]
 [2 2 2 2 2 6 1 1 1 1]
 [2 2 2 2 2 1 1 1 1 1]
 [2 2 2 2 2 1 1 1 1 1]]","[[7 5]
 [6 6]
 [7 6]
 [8 6]
 [5 7]
 [6 7]
 [7 7]
 [5 8]
 [6 8]]",[190 193 196 199 202 205],0,[1.5   0.004 2.    1.   ],0.22587480602800875
eb,03-12-2022,52.0,52.0,1.0,0.0,1.0,0.0,0.0,31170.0,0.0,6.0,1.445363736499752,0.3110943650018087,-0.10389885435882802,-1.1599644722805211,-0.34033561645697075,-1.446610795039026,-0.5048848436986723,1.0,1.0,1.0,1.0,1.7127996066962106,-1.2569937105659874,1.446610795039026,-1.2706633334028472,0.2,"[[2 2 2 2 5 5 5 5 5 5]
 [2 2 2 2 5 5 5 5 5 5]
 [2 2 2 1 5 5 5 5 5 5]
 [2 1 1 1 1 5 5 5 5 3]
 [1 1 1 1 1 3 3 3 3 3]
 [1 1 1 1 3 3 3 3 3 3]
 [1 1 6 6 6 3 4 4 4 4]
 [6 6 6 6 6 4 4 4 4 4]
 [6 6 6 6 6 6 4 4 4 4]
 [6 6 6 6 6 6 4 4 4 4]]","[[2 2 2 2 5 5 5 5 5 5]
 [2 2 2 2 5 5 5 5 5 5]
 [2 2 2 1 5 5 5 5 5 5]
 [2 1 1 1 1 5 5 5 5 3]
 [1 1 1 1 1 3 3 3 3 3]
 [1 1 1 1 3 3 3 3 3 3]
 [1 1 6 6 6 3 4 4 4 4]
 [6 6 6 6 6 4 4 4 4 4]
 [6 6 6 6 6 6 4 4 4 4]
 [6 6 6 6 6 6 4 4 4 4]]","[[5 1]
 [6 1]
 [7 1]
 [4 2]
 [5 2]
 [6 2]
 [7 2]
 [4 3]
 [5 3]
 [6 3]
 [3 4]
 [4 4]
 [5 4]
 [6 4]
 [4 5]
 [5 5]]",[190 193 196 199 202 205],0,[1.5   0.004 2.    1.   ],
eb,03-12-2022,53.0,53.0,1.0,-0.7069299823886379,2.0,1.0,1.0,81780.0,49568.0,5.0,-0.18912111980474722,-1.6597283464445562,0.13116642699598652,-0.2424525305913606,-2.3902104383465166,1.4756028646506774,0.9750393191980459,1.0,1.0,1.0,1.0,-0.558073138215123,1.4485679570263148,-1.4756028646506774,1.2509944030584492,1.0,"[[2 2 5 5 5 5 5 1 1 1]
 [2 2 5 5 5 5 1 1 1 1]
 [2 2 2 5 5 5 1 1 1 1]
 [2 2 2 5 5 5 1 1 3 3]
 [2 2 2 4 5 3 3 3 3 3]
 [2 4 4 4 4 3 3 3 3 3]
 [4 4 4 4 4 4 6 6 6 6]
 [4 4 4 4 4 4 6 6 6 6]
 [4 4 4 4 4 6 6 6 6 6]
 [4 4 4 4 4 6 6 6 6 6]]","[[2 2 2 2 5 5 5 5 5 5]
 [2 2 2 2 5 5 5 5 5 5]
 [2 2 2 2 1 1 5 5 5 5]
 [2 2 2 6 6 1 1 1 1 1]
 [2 2 2 6 6 1 1 1 1 1]
 [3 3 3 3 6 1 1 1 4 4]
 [3 3 3 3 3 6 1 4 4 4]
 [3 3 3 3 3 3 4 4 4 4]
 [3 3 3 3 3 4 4 4 4 4]
 [3 3 3 3 3 4 4 4 4 4]]","[[4 4]
 [5 4]
 [4 5]
 [5 5]
 [6 5]
 [7 6]]",[190 193 196 199 202 205],0,[1.5   0.004 2.    1.   ],0.3177257508625839
eb,03-12-2022,54.0,54.0,1.0,0.7069299823886379,2.0,0.0,0.0,56273.0,0.0,8.0,0.5598793995090379,1.0994234495803548,-0.10389885435882802,-1.1599644722805211,-0.34033561645697075,1.1837013206900253,-0.5048848436986723,1.0,1.0,1.0,1.0,1.6001819573762026,1.4485679570263192,-1.1837013206900253,1.2509944030584492,1.0,"[[3 3 3 3 3 4 4 4 4 4]
 [3 3 3 3 3 4 4 4 4 4]
 [6 6 3 3 3 3 1 1 1 1]
 [6 6 6 6 3 1 1 1 1 1]
 [6 6 6 6 6 1 1 1 1 1]
 [6 6 6 6 6 5 5 5 1 1]
 [6 6 6 6 5 5 5 5 5 5]
 [2 2 2 2 5 5 5 5 5 5]
 [2 2 2 2 2 5 5 5 5 5]
 [2 2 2 2 2 5 5 5 5 5]]","[[3 3 3 3 3 4 4 4 4 4]
 [3 3 3 3 3 4 4 4 4 4]
 [6 6 3 3 3 3 1 1 1 1]
 [6 6 6 6 3 1 1 1 1 1]
 [6 6 6 6 6 1 1 1 1 1]
 [6 6 6 6 6 5 5 5 1 1]
 [6 6 6 6 5 5 5 5 5 5]
 [2 2 2 2 5 5 5 5 5 5]
 [2 2 2 2 2 5 5 5 5 5]
 [2 2 2 2 2 5 5 5 5 5]]","[[3 1]
 [4 1]
 [5 1]
 [6 1]
 [7 1]
 [3 2]
 [4 2]
 [5 2]
 [6 2]
 [7 2]
 [4 3]
 [5 3]
 [6 3]
 [7 3]
 [4 4]
 [5 4]
 [6 4]
 [7 4]
 [5 5]
 [6 5]]",[190 193 196 199 202 205],0,[1.5   0.004 2.    1.   ],
eb,03-12-2022,55.0,55.0,1.0,-1.4138599647772758,2.0,0.0,0.0,56059.0,0.0,2.0,0.35553511220057615,0.5081766361464453,1.5415581151248738,-1.1599644722805211,1.0155209311014983,1.23809175879566,0.8876732036913636,1.0,1.0,1.0,1.0,1.1980311547454294,1.4485679570263148,-1.23809175879566,1.2509944030584492,1.0,"[[5 5 5 5 5 3 3 3 3 3]
 [5 5 5 5 5 3 3 3 3 3]
 [5 5 5 5 5 3 3 3 3 3]
 [1 1 1 1 1 1 3 3 3 3]
 [1 1 1 1 1 4 4 4 4 3]
 [1 1 1 1 1 4 4 4 4 4]
 [1 6 6 6 2 2 4 4 4 4]
 [6 6 6 6 2 2 4 4 4 4]
 [6 6 6 6 6 2 4 4 4 4]
 [6 6 6 6 6 2 2 4 4 4]]","[[5 5 5 5 5 3 3 3 3 3]
 [5 5 5 5 5 3 3 3 3 3]
 [5 5 5 5 5 3 3 3 3 3]
 [1 1 1 1 1 1 3 3 3 3]
 [1 1 1 1 1 4 4 4 4 3]
 [1 1 1 1 1 4 4 4 4 4]
 [1 6 6 6 2 2 4 4 4 4]
 [6 6 6 6 2 2 4 4 4 4]
 [6 6 6 6 6 2 4 4 4 4]
 [6 6 6 6 6 2 2 4 4 4]]","[[ 8  1]
 [ 9  1]
 [10  1]
 [ 7  2]
 [ 8  2]
 [ 9  2]
 [10  2]
 [ 7  3]
 [ 8  3]
 [ 9  3]
 [10  3]
 [ 7  4]
 [ 8  4]
 [ 9  4]
 [10  4]
 [ 9  5]
 [10  5]]",[190 193 196 199 202 205],0,[1.5   0.004 2.    1.   ],
eb,03-12-2022,56.0,56.0,1.0,-0.7069299823886379,2.0,0.0,,56718.0,0.0,4.0,,0.7052589072910818,1.5415581151248738,1.1338153819423797,1.0155209311014983,-0.8892936328553213,2.2754085356106697,1.0,1.0,1.0,0.0,1.32618599638417,-0.7344917868892152,0.8892936328553213,-0.7663317861105879,1.0,"[[1 1 1 5 5 5 5 5 5 5]
 [1 1 1 3 5 5 5 5 5 5]
 [1 1 3 3 5 5 5 5 5 5]
 [1 1 3 3 3 4 4 4 4 4]
 [1 1 3 3 3 4 4 4 4 4]
 [1 1 3 3 6 4 4 4 4 4]
 [1 6 6 6 6 2 2 2 4 4]
 [6 6 6 6 6 2 2 2 2 2]
 [6 6 6 6 6 2 2 2 2 2]
 [6 6 6 6 6 2 2 2 2 2]]","[[1 1 1 5 5 5 5 5 5 5]
 [1 1 1 3 5 5 5 5 5 5]
 [1 1 3 3 5 5 5 5 5 5]
 [1 1 3 3 3 4 4 4 4 4]
 [1 1 3 3 3 4 4 4 4 4]
 [1 1 3 3 6 4 4 4 4 4]
 [1 6 6 6 6 2 2 2 4 4]
 [6 6 6 6 6 2 2 2 2 2]
 [6 6 6 6 6 2 2 2 2 2]
 [6 6 6 6 6 2 2 2 2 2]]","[[ 7  6]
 [ 8  6]
 [ 9  6]
 [10  6]
 [ 7  7]
 [ 8  7]
 [ 9  7]
 [10  7]
 [ 7  8]
 [ 8  8]
 [ 9  8]
 [10  8]
 [ 8  9]
 [ 9  9]
 [10  9]
 [ 8 10]
 [ 9 10]
 [10 10]]",[190 193 196 199 202 205],0,[1.5   0.004 2.    1.   ],
eb,03-12-2022,57.0,57.0,1.0,-0.7069299823886379,2.0,0.0,0.0,13709.0,0.0,4.0,3.010946063722292,1.6906702630142643,1.3064928337700592,1.1338153819423797,0.6458641663872224,1.1692698072656458,0.876457788493246,1.0,1.0,1.0,1.0,1.7068853579907972,1.4485679570263148,-1.1692698072656458,1.2509944030584492,1.0,"[[3 3 3 3 3 5 5 5 5 5]
 [3 3 3 3 3 5 5 5 5 5]
 [3 3 3 3 3 5 5 5 2 2]
 [3 3 3 1 1 2 2 2 2 2]
 [3 1 1 1 1 1 2 2 2 2]
 [1 1 1 1 1 1 6 6 6 2]
 [4 4 4 4 4 6 6 6 6 6]
 [4 4 4 4 4 6 6 6 6 6]
 [4 4 4 4 4 6 6 6 6 6]
 [4 4 4 4 4 6 6 6 6 6]]","[[3 3 3 3 3 5 5 5 5 5]
 [3 3 3 3 3 5 5 5 5 5]
 [3 3 3 3 3 5 5 5 2 2]
 [3 3 3 1 1 2 2 2 2 2]
 [3 1 1 1 1 1 2 2 2 2]
 [1 1 1 1 1 1 6 6 6 2]
 [4 4 4 4 4 6 6 6 6 6]
 [4 4 4 4 4 6 6 6 6 6]
 [4 4 4 4 4 6 6 6 6 6]
 [4 4 4 4 4 6 6 6 6 6]]","[[ 7  6]
 [ 8  6]
 [ 9  6]
 [10  6]
 [ 6  7]
 [ 7  7]
 [ 8  7]
 [ 9  7]
 [10  7]
 [ 6  8]
 [ 7  8]
 [ 8  8]
 [ 9  8]
 [10  8]
 [ 6  9]
 [ 7  9]
 [ 8  9]
 [ 9  9]
 [10  9]
 [ 7 10]
 [ 8 10]
 [ 9 10]
 [10 10]]",[190 193 196 199 202 205],0,[1.5   0.004 2.    1.   ],
eb,03-12-2022,58.0,58.0,1.0,-0.7069299823886379,2.0,1.0,1.0,98309.0,6856.0,5.0,1.6497128932448981,0.11401209385717222,-0.8090946984232718,0.9044373965200898,-0.06136856687254028,-1.23048432351551,-0.5048848436986723,1.0,1.0,1.0,1.0,0.11480854392652473,-1.2569937105659874,1.23048432351551,-1.2706633334028472,1.0,"[[4 4 4 4 4 4 6 6 6 6]
 [4 4 4 4 4 4 6 6 6 6]
 [3 3 4 4 4 1 1 6 6 6]
 [3 3 3 3 1 1 1 1 1 6]
 [3 3 3 3 1 1 1 1 1 1]
 [3 3 3 5 5 1 1 1 2 2]
 [3 5 5 5 5 5 2 2 2 2]
 [5 5 5 5 5 2 2 2 2 2]
 [5 5 5 5 5 2 2 2 2 2]
 [5 5 5 5 5 2 2 2 2 2]]","[[6 6 6 6 6 6 5 5 5 5]
 [6 6 6 6 6 6 1 5 5 5]
 [2 6 6 6 6 1 1 1 1 5]
 [2 2 2 2 1 1 1 1 1 1]
 [2 2 2 2 2 4 1 1 1 1]
 [2 2 2 2 2 4 4 4 4 4]
 [2 2 2 2 2 4 4 4 4 4]
 [2 2 3 3 3 4 4 4 4 4]
 [3 3 3 3 3 3 4 4 4 4]
 [3 3 3 3 3 3 4 4 4 4]]","[[ 4  5]
 [ 3  6]
 [ 4  6]
 [ 2  7]
 [ 3  7]
 [ 4  7]
 [ 5  7]
 [ 3  8]
 [ 4  8]
 [ 5  8]
 [ 3  9]
 [ 4  9]
 [ 5  9]
 [ 4 10]
 [ 5 10]]",[190 193 196 199 202 205],0,[1.5   0.004 2.    1.   ],0.16095309962127555
eb,03-12-2022,59.0,59.0,1.0,1.4138599647772758,1.0,1.0,1.0,89348.0,47350.0,10.0,0.559887515236845,-0.8713992618660102,-0.3389641357136426,0.4456814256755096,-1.4758340333920659,0.8900001226894652,-0.5048848436986723,1.0,1.0,1.0,1.0,-0.2306485741197269,0.8885195512674522,-0.8900001226894652,0.74666285576619,0.2,"[[3 3 3 3 1 1 1 1 1 1]
 [3 3 3 3 4 1 1 1 1 1]
 [3 3 3 4 4 1 1 1 1 1]
 [3 3 4 4 4 4 1 5 5 5]
 [6 6 6 4 4 4 5 5 5 5]
 [6 6 6 6 4 4 5 5 5 5]
 [6 6 6 6 6 2 2 2 2 2]
 [6 6 6 6 6 2 2 2 2 2]
 [6 6 6 6 2 2 2 2 2 2]
 [6 6 6 6 2 2 2 2 2 2]]","[[2 2 2 2 2 3 3 3 3 3]
 [2 2 2 2 2 3 3 3 3 3]
 [2 2 2 2 5 5 3 3 3 3]
 [2 6 6 6 5 5 5 5 3 3]
 [6 6 6 6 6 5 5 5 4 4]
 [6 6 6 6 6 5 4 4 4 4]
 [1 1 1 1 1 4 4 4 4 4]
 [1 1 1 1 1 4 4 4 4 4]
 [1 1 1 1 1 4 4 4 4 4]
 [1 1 1 1 1 1 4 4 4 4]]","[[3 5]
 [4 5]
 [3 6]
 [4 6]
 [5 6]
 [6 6]
 [4 7]
 [5 7]
 [4 8]
 [5 8]]",[190 193 196 199 202 205],0,[1.5   0.004 2.    1.   ],0.24001165547100617
eb,03-12-2022,60.0,60.0,1.0,0.0,2.0,0.0,1.0,8599.0,0.0,6.0,-0.3928778284199776,0.5081766361464453,0.3662317083508011,-0.930586486858231,-0.8283794768627742,0.7795356738761134,2.2802312510813993,1.0,1.0,1.0,0.0,0.5861009925260002,0.8885195512674433,-0.7795356738761134,0.74666285576619,1.0,"[[1 1 1 1 1 2 2 2 2 2]
 [1 1 1 1 1 2 2 2 2 2]
 [1 1 1 1 1 2 2 2 2 2]
 [1 1 1 5 5 3 3 3 3 3]
 [5 5 5 5 5 5 3 3 3 3]
 [6 5 5 5 5 5 3 3 3 3]
 [6 6 6 5 5 5 4 3 3 3]
 [6 6 6 6 5 4 4 4 4 3]
 [6 6 6 6 4 4 4 4 4 4]
 [6 6 6 6 4 4 4 4 4 4]]","[[1 1 1 1 1 2 2 2 2 2]
 [1 1 1 1 1 2 2 2 2 2]
 [1 1 1 1 1 2 2 2 2 2]
 [1 1 1 5 5 3 3 3 3 3]
 [5 5 5 5 5 5 3 3 3 3]
 [6 5 5 5 5 5 3 3 3 3]
 [6 6 6 5 5 5 4 3 3 3]
 [6 6 6 6 5 4 4 4 4 3]
 [6 6 6 6 4 4 4 4 4 4]
 [6 6 6 6 4 4 4 4 4 4]]","[[5 1]
 [5 2]
 [6 2]
 [5 3]
 [6 3]
 [4 4]
 [5 4]
 [6 4]
 [7 4]
 [4 5]
 [5 5]
 [6 5]
 [7 5]
 [8 5]
 [5 6]
 [6 6]
 [7 6]]",[190 193 196 199 202 205],0,[1.5   0.004 2.    1.   ],
eb,03-12-2022,61.0,61.0,1.0,1.4138599647772758,2.0,0.0,0.0,29890.0,0.0,11.0,0.8326960823256847,0.5081766361464453,0.13116642699598652,-0.930586486858231,-0.8899432536512916,1.1481961460481356,0.8876732036913636,1.0,1.0,1.0,1.0,1.862699322138882,1.4485679570263148,-1.1481961460481356,1.2509944030584492,1.0,"[[3 3 3 3 1 1 1 1 1 1]
 [3 3 3 3 3 1 1 1 1 1]
 [3 3 3 3 3 1 1 1 1 1]
 [6 6 6 6 6 6 5 5 5 5]
 [6 6 6 6 6 5 5 5 5 5]
 [6 6 6 6 6 5 5 5 5 5]
 [4 4 6 2 2 2 5 5 5 5]
 [4 4 4 4 2 2 5 5 5 5]
 [4 4 4 4 4 2 2 5 5 5]
 [4 4 4 4 4 4 2 2 5 5]]","[[3 3 3 3 1 1 1 1 1 1]
 [3 3 3 3 3 1 1 1 1 1]
 [3 3 3 3 3 1 1 1 1 1]
 [6 6 6 6 6 6 5 5 5 5]
 [6 6 6 6 6 5 5 5 5 5]
 [6 6 6 6 6 5 5 5 5 5]
 [4 4 6 2 2 2 5 5 5 5]
 [4 4 4 4 2 2 5 5 5 5]
 [4 4 4 4 4 2 2 5 5 5]
 [4 4 4 4 4 4 2 2 5 5]]","[[4 1]
 [5 1]
 [6 1]
 [4 2]
 [5 2]
 [6 2]
 [4 3]
 [5 3]
 [6 3]
 [7 3]
 [4 4]
 [5 4]
 [6 4]
 [4 5]
 [5 5]
 [6 5]
 [4 6]]",[190 193 196 199 202 205],0,[1.5   0.004 2.    1.   ],
eb,03-12-2022,62.0,62.0,1.0,-0.7069299823886379,2.0,0.0,0.0,63678.0,0.0,4.0,0.0836273908983203,0.7052589072910818,-1.0441599797780863,1.1338153819423797,0.6458641663872224,1.1757702025085879,0.8852618459559989,1.0,1.0,1.0,1.0,1.6588228812869106,1.4485679570263148,-1.1757702025085879,1.2509944030584492,1.0,"[[4 4 4 4 4 4 6 6 6 6]
 [4 4 4 4 4 6 6 6 6 6]
 [4 4 4 4 5 6 6 6 6 6]
 [5 5 5 5 5 1 1 6 6 6]
 [5 5 5 5 5 1 1 1 6 2]
 [5 5 5 5 5 1 1 1 2 2]
 [5 5 5 5 5 1 2 2 2 2]
 [3 3 3 3 3 3 2 2 2 2]
 [3 3 3 3 3 3 3 2 2 2]
 [3 3 3 3 3 3 3 2 2 2]]","[[4 4 4 4 4 4 6 6 6 6]
 [4 4 4 4 4 6 6 6 6 6]
 [4 4 4 4 5 6 6 6 6 6]
 [5 5 5 5 5 1 1 6 6 6]
 [5 5 5 5 5 1 1 1 6 2]
 [5 5 5 5 5 1 1 1 2 2]
 [5 5 5 5 5 1 2 2 2 2]
 [3 3 3 3 3 3 2 2 2 2]
 [3 3 3 3 3 3 3 2 2 2]
 [3 3 3 3 3 3 3 2 2 2]]","[[ 2  6]
 [ 3  6]
 [ 1  7]
 [ 2  7]
 [ 3  7]
 [ 1  8]
 [ 2  8]
 [ 3  8]
 [ 4  8]
 [ 1  9]
 [ 2  9]
 [ 3  9]
 [ 4  9]
 [ 5  9]
 [ 1 10]
 [ 2 10]
 [ 3 10]
 [ 4 10]]",[190 193 196 199 202 205],0,[1.5   0.004 2.    1.   ],
eb,03-12-2022,63.0,63.0,1.0,-1.4138599647772758,1.0,0.0,1.0,16622.0,0.0,2.0,3.5552679277419643,0.3110943650018087,1.7766233964796883,-0.930586486858231,1.1415474115307847,-1.3300104605464487,-0.5048848436986723,1.0,1.0,1.0,0.0,0.8506826659917909,-1.2569937105659874,1.3300104605464487,-1.2706633334028472,0.2,"[[5 5 5 5 5 2 2 2 2 2]
 [5 5 5 5 5 2 2 2 2 2]
 [5 5 5 5 5 3 2 2 2 2]
 [5 5 5 5 3 3 3 3 2 2]
 [6 6 6 6 3 3 3 3 3 4]
 [6 6 6 6 6 3 3 4 4 4]
 [6 6 6 6 6 4 4 4 4 4]
 [1 1 1 1 1 4 4 4 4 4]
 [1 1 1 1 1 4 4 4 4 4]
 [1 1 1 1 1 1 4 4 4 4]]","[[5 5 5 5 5 2 2 2 2 2]
 [5 5 5 5 5 2 2 2 2 2]
 [5 5 5 5 5 3 2 2 2 2]
 [5 5 5 5 3 3 3 3 2 2]
 [6 6 6 6 3 3 3 3 3 4]
 [6 6 6 6 6 3 3 4 4 4]
 [6 6 6 6 6 4 4 4 4 4]
 [1 1 1 1 1 4 4 4 4 4]
 [1 1 1 1 1 4 4 4 4 4]
 [1 1 1 1 1 1 4 4 4 4]]","[[ 8  1]
 [ 9  1]
 [10  1]
 [ 8  2]
 [ 9  2]
 [10  2]
 [ 8  3]
 [ 9  3]
 [10  3]
 [ 8  4]
 [ 9  4]
 [10  4]
 [ 8  5]
 [ 9  5]
 [10  5]
 [10  6]]",[190 193 196 199 202 205],0,[1.5   0.004 2.    1.   ],
eb,03-12-2022,64.0,64.0,1.0,0.7069299823886379,1.0,1.0,1.0,8737.0,14434.0,8.0,0.08328166089373945,-1.0684815330106467,0.3662317083508011,0.6750594110977998,-1.3088790324297854,-0.7695570097942632,0.9280455654385631,1.0,1.0,1.0,1.0,0.4408800355317354,-0.7344917868892018,0.7695570097942632,-0.7663317861105879,0.2,"[[3 3 3 3 3 5 5 5 5 5]
 [3 3 3 3 3 5 5 5 5 5]
 [3 3 3 3 3 5 5 5 4 4]
 [3 3 3 3 2 2 4 4 4 4]
 [1 1 2 2 2 2 4 4 4 4]
 [1 1 1 2 2 2 6 4 4 4]
 [1 1 1 2 2 6 6 6 4 4]
 [1 1 1 1 2 6 6 6 6 6]
 [1 1 1 1 6 6 6 6 6 6]
 [1 1 1 1 6 6 6 6 6 6]]","[[1 1 1 4 4 4 4 4 4 4]
 [1 1 1 1 5 4 4 4 4 4]
 [1 1 1 1 1 5 5 5 4 4]
 [1 1 1 1 1 5 5 5 5 5]
 [1 1 1 1 1 2 2 2 2 5]
 [3 3 3 3 2 2 2 2 6 6]
 [3 3 3 3 3 2 6 6 6 6]
 [3 3 3 3 3 6 6 6 6 6]
 [3 3 3 3 3 6 6 6 6 6]
 [3 3 3 3 3 6 6 6 6 6]]","[[6 5]
 [5 6]
 [6 6]
 [7 6]
 [5 7]
 [6 7]
 [5 8]
 [6 8]
 [5 9]]",[190 193 196 199 202 205],0,[1.5   0.004 2.    1.   ],0.24072619583455027
eb,03-12-2022,65.0,65.0,1.0,0.7069299823886379,1.0,1.0,1.0,34449.0,22642.0,8.0,0.21950577528084256,-0.6743169907213737,-1.0441599797780863,0.21630344025321954,-0.34033561645697075,1.3853332174297224,0.9120346672822526,1.0,1.0,1.0,1.0,0.10936055688762296,1.4485679570263148,-1.3853332174297224,1.2509944030584492,0.2,"[[6 6 6 6 6 2 2 2 2 2]
 [6 6 6 6 2 2 2 2 2 2]
 [6 6 6 6 2 2 2 2 2 2]
 [6 6 4 4 4 2 2 1 1 1]
 [4 4 4 4 4 1 1 1 1 1]
 [3 4 4 4 4 1 1 1 1 1]
 [3 3 3 3 1 1 1 5 5 5]
 [3 3 3 3 3 5 5 5 5 5]
 [3 3 3 3 3 5 5 5 5 5]
 [3 3 3 3 3 5 5 5 5 5]]","[[2 2 2 2 2 6 6 3 3 3]
 [2 2 2 2 6 6 6 3 3 3]
 [2 2 2 2 6 6 6 3 3 3]
 [2 2 5 5 6 6 3 3 3 3]
 [2 5 5 5 5 6 3 3 3 3]
 [5 5 5 5 5 5 3 3 3 3]
 [5 5 5 5 5 1 1 3 3 3]
 [5 1 1 1 1 1 4 4 4 4]
 [1 1 1 1 1 4 4 4 4 4]
 [1 1 1 1 4 4 4 4 4 4]]","[[2 5]
 [3 5]
 [4 5]
 [1 6]
 [2 6]
 [3 6]
 [4 6]
 [5 6]
 [1 7]
 [2 7]
 [3 7]]",[190 193 196 199 202 205],0,[1.5   0.004 2.    1.   ],0.21656132319038218
eb,03-12-2022,66.0,66.0,1.0,-0.7069299823886379,1.0,1.0,1.0,76292.0,12164.0,4.0,-0.18915358271597546,-0.6743169907213737,0.6012969897056156,-1.1599644722805211,-0.19723748513842945,-1.0548365235944661,0.9120346672822526,1.0,1.0,1.0,1.0,2.5501733128913453,-0.7344917868892018,1.0548365235944661,-0.7663317861105879,0.2,"[[3 3 3 3 3 3 5 5 5 5]
 [3 3 3 3 3 5 5 5 5 5]
 [1 1 1 3 3 5 5 5 5 5]
 [1 1 1 1 1 5 5 5 5 5]
 [1 1 1 1 1 1 5 5 2 2]
 [1 1 1 1 1 1 2 2 2 2]
 [6 6 6 6 6 4 2 2 2 2]
 [6 6 6 6 6 4 4 2 2 2]
 [6 6 6 6 6 4 4 4 4 2]
 [6 6 6 6 6 4 4 4 4 4]]","[[4 4 4 4 5 5 5 5 5 5]
 [4 4 4 4 5 5 5 5 5 5]
 [4 4 4 4 5 5 5 5 5 5]
 [4 4 4 2 2 5 5 5 1 1]
 [4 4 2 2 6 6 1 1 1 1]
 [4 2 2 6 6 6 1 1 3 3]
 [2 2 6 6 6 6 3 3 3 3]
 [2 2 6 6 6 6 3 3 3 3]
 [2 6 6 6 6 3 3 3 3 3]
 [6 6 6 6 6 3 3 3 3 3]]","[[7 1]
 [8 1]
 [9 1]
 [6 2]
 [7 2]
 [8 2]
 [5 3]
 [6 3]
 [4 4]
 [5 4]
 [4 5]]",[190 193 196 199 202 205],0,[1.5   0.004 2.    1.   ],0.21672375965715165
eb,03-12-2022,67.0,67.0,1.0,-1.4138599647772758,2.0,0.0,0.0,98998.0,0.0,2.0,1.9223250597208068,0.5081766361464453,1.5415581151248738,-1.1599644722805211,1.0155209311014983,1.2954232760076416,0.8876732036913636,1.0,1.0,1.0,1.0,0.7741346673139724,1.4485679570263148,-1.2954232760076416,1.2509944030584492,1.0,"[[5 5 5 5 5 1 1 1 1 1]
 [5 5 5 5 5 1 1 1 1 1]
 [5 5 5 5 5 1 1 1 1 1]
 [2 2 2 2 2 4 4 4 4 4]
 [2 2 2 2 2 4 4 4 4 4]
 [2 2 2 2 2 4 4 4 4 4]
 [6 6 6 6 6 3 3 3 4 4]
 [6 6 6 6 3 3 3 3 3 3]
 [6 6 6 6 3 3 3 3 3 3]
 [6 6 6 6 3 3 3 3 3 3]]","[[5 5 5 5 5 1 1 1 1 1]
 [5 5 5 5 5 1 1 1 1 1]
 [5 5 5 5 5 1 1 1 1 1]
 [2 2 2 2 2 4 4 4 4 4]
 [2 2 2 2 2 4 4 4 4 4]
 [2 2 2 2 2 4 4 4 4 4]
 [6 6 6 6 6 3 3 3 4 4]
 [6 6 6 6 3 3 3 3 3 3]
 [6 6 6 6 3 3 3 3 3 3]
 [6 6 6 6 3 3 3 3 3 3]]","[[ 7  1]
 [ 8  1]
 [ 9  1]
 [10  1]
 [ 7  2]
 [ 8  2]
 [ 9  2]
 [10  2]
 [ 7  3]
 [ 8  3]
 [ 9  3]
 [10  3]
 [ 7  4]
 [ 8  4]
 [ 9  4]
 [10  4]
 [ 7  5]]",[190 193 196 199 202 205],0,[1.5   0.004 2.    1.   ],
eb,03-12-2022,68.0,68.0,1.0,0.7069299823886379,2.0,0.0,0.0,23750.0,0.0,9.0,2.6704701813237275,0.9023411784357183,1.3064928337700592,-1.389342457702811,1.0155209311014983,-0.7087813526843554,2.2711146436593728,1.0,1.0,1.0,1.0,-0.008481656310077312,-0.7344917868892152,0.7087813526843554,-0.7663317861105879,1.0,"[[3 6 6 6 4 4 4 4 4 4]
 [3 6 6 6 6 4 4 4 4 4]
 [3 6 6 6 6 5 5 5 5 5]
 [3 6 6 6 6 5 5 5 5 5]
 [3 3 6 6 6 5 5 5 5 5]
 [3 2 2 2 1 1 5 5 5 5]
 [2 2 2 2 1 1 1 1 1 1]
 [2 2 2 2 1 1 1 1 1 1]
 [2 2 2 2 1 1 1 1 1 1]
 [2 2 2 2 1 1 1 1 1 1]]","[[3 6 6 6 4 4 4 4 4 4]
 [3 6 6 6 6 4 4 4 4 4]
 [3 6 6 6 6 5 5 5 5 5]
 [3 6 6 6 6 5 5 5 5 5]
 [3 3 6 6 6 5 5 5 5 5]
 [3 2 2 2 1 1 5 5 5 5]
 [2 2 2 2 1 1 1 1 1 1]
 [2 2 2 2 1 1 1 1 1 1]
 [2 2 2 2 1 1 1 1 1 1]
 [2 2 2 2 1 1 1 1 1 1]]","[[ 7  1]
 [ 8  1]
 [ 9  1]
 [10  1]
 [ 6  2]
 [ 7  2]
 [ 8  2]
 [ 9  2]
 [10  2]
 [ 6  3]
 [ 7  3]
 [ 8  3]
 [ 9  3]
 [10  3]
 [ 6  4]
 [ 7  4]
 [ 8  4]
 [ 9  4]
 [10  4]]",[190 193 196 199 202 205],0,[1.5   0.004 2.    1.   ],
eb,03-12-2022,69.0,69.0,1.0,0.0,2.0,0.0,0.0,53951.0,0.0,7.0,1.036480384415459,2.084834805303537,-0.3389641357136426,-0.930586486858231,-0.6538332269844213,-1.2390642357681547,-0.5048848436986723,1.0,1.0,1.0,1.0,0.17824650690452318,-1.2569937105659874,1.2390642357681547,-1.2706633334028472,1.0,"[[5 5 5 5 5 5 2 2 2 2]
 [5 5 5 1 1 4 4 2 2 2]
 [1 1 1 1 1 4 4 4 2 2]
 [1 1 1 1 1 4 4 4 4 2]
 [1 1 1 1 1 4 4 4 4 6]
 [1 1 1 1 1 1 6 6 6 6]
 [3 3 3 1 1 6 6 6 6 6]
 [3 3 3 3 3 6 6 6 6 6]
 [3 3 3 3 3 3 6 6 6 6]
 [3 3 3 3 3 3 3 6 6 6]]","[[5 5 5 5 5 5 2 2 2 2]
 [5 5 5 1 1 4 4 2 2 2]
 [1 1 1 1 1 4 4 4 2 2]
 [1 1 1 1 1 4 4 4 4 2]
 [1 1 1 1 1 4 4 4 4 6]
 [1 1 1 1 1 1 6 6 6 6]
 [3 3 3 1 1 6 6 6 6 6]
 [3 3 3 3 3 6 6 6 6 6]
 [3 3 3 3 3 3 6 6 6 6]
 [3 3 3 3 3 3 3 6 6 6]]","[[3 1]
 [4 1]
 [5 1]
 [6 1]
 [3 2]
 [4 2]
 [5 2]
 [6 2]
 [3 3]
 [4 3]
 [5 3]
 [6 3]
 [2 4]
 [3 4]
 [4 4]
 [5 4]
 [6 4]
 [7 4]
 [2 5]
 [3 5]
 [4 5]
 [5 5]
 [6 5]
 [7 5]
 [6 6]]",[190 193 196 199 202 205],0,[1.5   0.004 2.    1.   ],
eb,03-12-2022,70.0,70.0,1.0,-0.7069299823886379,1.0,1.0,1.0,54490.0,46051.0,4.0,0.7641214286471306,-0.2801524484321008,0.8363622710604302,0.21630344025321954,-1.3088790324297854,-1.4878082999011322,-0.5048848436986723,1.0,1.0,1.0,1.0,2.0174047951027276,-1.2569937105659874,1.4878082999011322,-1.2706633334028472,0.2,"[[5 5 5 5 5 5 6 6 6 6]
 [5 5 5 5 5 5 6 6 6 6]
 [5 5 5 5 5 2 2 6 6 6]
 [4 4 4 4 2 2 2 2 6 6]
 [4 4 4 4 2 2 2 2 2 6]
 [4 4 4 4 4 2 2 2 2 2]
 [4 4 4 4 4 1 1 1 1 1]
 [3 3 3 3 3 1 1 1 1 1]
 [3 3 3 3 3 1 1 1 1 1]
 [3 3 3 3 3 1 1 1 1 1]]","[[2 2 2 2 6 6 6 6 6 6]
 [2 2 2 2 2 6 6 6 6 6]
 [2 2 2 2 3 3 6 6 6 6]
 [2 2 2 3 3 3 1 6 6 6]
 [4 4 4 4 3 1 1 1 5 5]
 [4 4 4 4 1 1 1 5 5 5]
 [4 4 4 4 1 1 5 5 5 5]
 [4 4 4 1 1 5 5 5 5 5]
 [4 4 4 1 5 5 5 5 5 5]
 [4 4 4 1 5 5 5 5 5 5]]","[[ 8  4]
 [ 9  4]
 [10  4]
 [ 6  5]
 [ 7  5]
 [ 8  5]
 [ 5  6]
 [ 6  6]
 [ 7  6]
 [ 4  7]
 [ 5  7]
 [ 6  7]
 [ 5  8]]",[190 193 196 199 202 205],0,[1.5   0.004 2.    1.   ],0.16877169938064737
eb,03-12-2022,71.0,71.0,1.0,-1.4138599647772758,1.0,0.0,0.0,56598.0,0.0,2.0,0.49179980522671457,0.7052589072910818,1.5415581151248738,-0.930586486858231,0.7158940076314996,1.2839627446418094,0.8852618459559989,1.0,1.0,1.0,1.0,0.8588712873498889,1.4485679570263148,-1.2839627446418094,1.2509944030584492,0.2,"[[5 5 5 5 5 5 5 5 3 3]
 [5 5 5 5 5 5 5 3 3 3]
 [2 2 5 5 5 5 3 3 3 3]
 [2 2 2 2 2 3 3 3 3 4]
 [2 2 2 2 2 2 3 4 4 4]
 [2 2 2 2 2 1 1 4 4 4]
 [6 2 2 2 2 1 1 4 4 4]
 [6 6 6 6 6 1 1 1 4 4]
 [6 6 6 6 6 6 1 1 1 4]
 [6 6 6 6 6 6 1 1 1 1]]","[[5 5 5 5 5 5 5 5 3 3]
 [5 5 5 5 5 5 5 3 3 3]
 [2 2 5 5 5 5 3 3 3 3]
 [2 2 2 2 2 3 3 3 3 4]
 [2 2 2 2 2 2 3 4 4 4]
 [2 2 2 2 2 1 1 4 4 4]
 [6 2 2 2 2 1 1 4 4 4]
 [6 6 6 6 6 1 1 1 4 4]
 [6 6 6 6 6 6 1 1 1 4]
 [6 6 6 6 6 6 1 1 1 1]]","[[ 7  1]
 [ 8  1]
 [ 9  1]
 [10  1]
 [ 8  2]
 [ 9  2]
 [10  2]
 [ 8  3]
 [ 9  3]
 [10  3]
 [ 8  4]
 [ 9  4]
 [10  4]
 [ 8  5]
 [ 9  5]
 [10  5]
 [ 9  6]
 [10  6]]",[190 193 196 199 202 205],0,[1.5   0.004 2.    1.   ],
eb,03-12-2022,72.0,72.0,1.0,-0.7069299823886379,1.0,0.0,0.0,55549.0,0.0,4.0,2.5346534764725392,0.11401209385717222,-1.279225261132901,-1.1599644722805211,1.0155209311014983,1.317244896959248,0.8935120471085274,1.0,1.0,1.0,1.0,0.6127904552421952,1.4485679570263148,-1.317244896959248,1.2509944030584492,0.2,"[[6 6 6 6 6 4 4 4 4 4]
 [6 6 6 6 6 4 4 4 4 5]
 [6 6 6 6 4 4 4 4 5 5]
 [1 1 1 6 4 4 4 5 5 5]
 [1 1 1 1 4 4 5 5 5 5]
 [1 1 1 1 2 5 5 5 5 5]
 [1 2 2 2 2 3 3 3 3 3]
 [2 2 2 2 2 3 3 3 3 3]
 [2 2 2 2 2 3 3 3 3 3]
 [2 2 2 2 2 3 3 3 3 3]]","[[6 6 6 6 6 4 4 4 4 4]
 [6 6 6 6 6 4 4 4 4 5]
 [6 6 6 6 4 4 4 4 5 5]
 [1 1 1 6 4 4 4 5 5 5]
 [1 1 1 1 4 4 5 5 5 5]
 [1 1 1 1 2 5 5 5 5 5]
 [1 2 2 2 2 3 3 3 3 3]
 [2 2 2 2 2 3 3 3 3 3]
 [2 2 2 2 2 3 3 3 3 3]
 [2 2 2 2 2 3 3 3 3 3]]","[[1 1]
 [2 1]
 [3 1]
 [1 2]
 [2 2]
 [3 2]
 [1 3]
 [2 3]
 [3 3]
 [1 4]
 [2 4]
 [3 4]
 [4 4]
 [1 5]
 [2 5]]",[190 193 196 199 202 205],0,[1.5   0.004 2.    1.   ],
eb,03-12-2022,73.0,73.0,1.0,0.0,1.0,1.0,1.0,59429.0,18605.0,7.0,0.3556617175543663,0.9023411784357183,-1.0441599797780863,-0.7012085014359407,0.025695761212690807,-0.27587140665217447,2.2711146436593728,1.0,1.0,1.0,1.0,0.5900901676667756,-0.20284607954809,0.27587140665217447,-0.2620002388183286,0.2,"[[4 4 4 2 2 2 2 2 2 2]
 [4 4 4 2 2 2 2 2 2 2]
 [4 4 4 4 2 2 2 5 5 5]
 [4 4 4 4 5 5 5 5 5 5]
 [4 1 1 1 5 5 5 5 5 6]
 [1 1 1 1 1 5 5 6 6 6]
 [1 1 1 1 1 5 6 6 6 6]
 [3 3 3 3 3 6 6 6 6 6]
 [3 3 3 3 3 3 6 6 6 6]
 [3 3 3 3 3 3 6 6 6 6]]","[[3 3 3 3 6 6 6 6 6 6]
 [3 3 3 3 3 6 6 6 6 6]
 [5 3 3 3 3 3 6 6 6 2]
 [5 5 5 3 3 3 3 2 2 2]
 [5 5 5 4 4 3 2 2 2 2]
 [5 5 5 4 4 4 2 2 2 2]
 [5 5 5 5 4 1 1 1 2 2]
 [5 5 5 5 4 1 1 1 1 2]
 [5 5 5 5 1 1 1 1 1 1]
 [5 5 5 5 1 1 1 1 1 1]]","[[1 1]
 [2 1]
 [1 2]
 [2 2]
 [3 2]
 [1 3]
 [2 3]
 [3 3]
 [1 4]
 [2 4]
 [3 4]
 [4 4]
 [2 5]
 [3 5]
 [4 5]
 [3 6]
 [4 6]
 [5 6]
 [4 7]]",[190 193 196 199 202 205],0,[1.5   0.004 2.    1.   ],0.13085926695128955
eb,03-12-2022,74.0,74.0,1.0,0.0,1.0,1.0,1.0,38678.0,11888.0,6.0,1.0364024734285113,-1.2655638041552832,-1.74935582384253,1.1338153819423797,1.827531271241219,0.684570702179088,-0.5048848436986723,1.0,1.0,1.0,1.0,1.2882508725397714,0.8885195512674522,-0.684570702179088,0.74666285576619,0.2,"[[6 6 6 6 6 6 4 4 4 4]
 [6 6 6 6 6 4 4 4 4 4]
 [6 5 5 5 5 4 4 4 4 4]
 [5 5 5 5 5 5 3 4 4 4]
 [5 5 5 5 5 3 3 3 3 4]
 [5 5 5 5 5 3 3 3 3 1]
 [5 5 2 2 2 3 3 1 1 1]
 [2 2 2 2 2 2 1 1 1 1]
 [2 2 2 2 2 2 1 1 1 1]
 [2 2 2 2 2 2 1 1 1 1]]","[[3 3 3 3 3 5 5 5 5 5]
 [1 3 3 3 3 5 5 5 2 2]
 [1 1 1 1 1 2 2 2 2 2]
 [1 1 1 1 1 2 2 2 2 2]
 [6 1 1 1 1 2 2 2 2 2]
 [6 6 6 6 6 2 4 4 4 4]
 [6 6 6 6 6 4 4 4 4 4]
 [6 6 6 6 6 4 4 4 4 4]
 [6 6 6 6 4 4 4 4 4 4]
 [6 6 6 6 4 4 4 4 4 4]]","[[ 1  6]
 [ 2  6]
 [ 1  7]
 [ 2  7]
 [ 1  8]
 [ 2  8]
 [ 1  9]
 [ 1 10]]",[190 193 196 199 202 205],0,[1.5   0.004 2.    1.   ],0.30623889283553546
eb,03-12-2022,75.0,75.0,1.0,0.7069299823886379,1.0,0.0,0.0,28582.0,0.0,9.0,1.0371442509500768,0.9023411784357183,1.5415581151248738,-0.930586486858231,0.7158940076314996,1.320026364219122,0.8831148999803502,1.0,1.0,1.0,1.0,0.592224904935781,1.4485679570263148,-1.320026364219122,1.2509944030584492,0.2,"[[1 1 1 1 1 1 4 4 4 4]
 [1 1 1 1 1 4 4 4 4 4]
 [1 1 1 1 1 4 4 4 4 4]
 [5 5 5 5 5 3 3 3 4 4]
 [5 5 5 5 5 3 3 3 3 3]
 [5 5 5 5 5 2 2 3 3 3]
 [6 6 6 6 2 2 2 2 2 2]
 [6 6 6 6 2 2 2 2 2 2]
 [6 6 6 6 6 2 2 2 2 2]
 [6 6 6 6 6 6 2 2 2 2]]","[[1 1 1 1 1 1 4 4 4 4]
 [1 1 1 1 1 4 4 4 4 4]
 [1 1 1 1 1 4 4 4 4 4]
 [5 5 5 5 5 3 3 3 4 4]
 [5 5 5 5 5 3 3 3 3 3]
 [5 5 5 5 5 2 2 3 3 3]
 [6 6 6 6 2 2 2 2 2 2]
 [6 6 6 6 2 2 2 2 2 2]
 [6 6 6 6 6 2 2 2 2 2]
 [6 6 6 6 6 6 2 2 2 2]]","[[ 7  1]
 [ 8  1]
 [ 9  1]
 [10  1]
 [ 7  2]
 [ 8  2]
 [ 9  2]
 [10  2]
 [ 7  3]
 [ 8  3]
 [ 9  3]
 [10  3]
 [ 7  4]
 [ 8  4]
 [ 9  4]
 [10  4]
 [ 9  5]
 [10  5]
 [10  6]]",[190 193 196 199 202 205],0,[1.5   0.004 2.    1.   ],
eb,03-12-2022,76.0,76.0,1.0,0.7069299823886379,1.0,1.0,1.0,51985.0,49302.0,8.0,-0.12099770059226578,-0.2801524484321008,1.7766233964796883,0.9044373965200898,1.1415474115307847,0.7742092631154709,0.9012594575890374,1.0,1.0,1.0,1.0,0.6254832890681795,0.8885195512674477,-0.7742092631154709,0.74666285576619,0.2,"[[3 3 3 3 3 3 6 6 6 6]
 [4 3 3 3 3 3 6 6 6 6]
 [4 4 3 3 3 3 6 6 6 6]
 [4 4 4 3 3 1 1 1 1 1]
 [4 4 4 4 3 1 1 1 1 1]
 [4 4 4 2 2 1 1 1 1 1]
 [2 2 2 2 2 1 1 1 1 1]
 [2 2 2 2 2 5 5 5 5 5]
 [2 2 2 2 5 5 5 5 5 5]
 [2 2 2 2 5 5 5 5 5 5]]","[[6 6 6 6 6 3 3 3 3 3]
 [6 6 6 6 6 3 3 3 3 3]
 [6 6 6 6 6 3 3 3 3 3]
 [6 6 6 2 2 2 1 1 1 1]
 [4 4 2 2 2 2 1 1 1 1]
 [4 4 4 2 2 2 2 1 1 1]
 [4 4 4 2 2 2 2 1 1 1]
 [4 4 4 4 2 2 5 5 1 1]
 [4 4 4 4 5 5 5 5 5 1]
 [4 4 4 4 5 5 5 5 5 5]]","[[ 9  5]
 [10  5]
 [ 9  6]
 [10  6]
 [ 8  7]
 [ 9  7]
 [10  7]
 [ 8  8]
 [ 9  8]
 [10  8]
 [ 9  9]
 [10  9]
 [10 10]]",[190 193 196 199 202 205],0,[1.5   0.004 2.    1.   ],0.205144972209783
eb,03-12-2022,77.0,77.0,1.0,0.7069299823886379,2.0,1.0,1.0,230.0,42631.0,8.0,0.7646213574800457,-0.4772347195767373,-0.8090946984232718,0.4456814256755096,-0.6538332269844213,-1.3790130002469676,-0.5048848436986723,1.0,1.0,1.0,1.0,1.2129965461123284,-1.2569937105659874,1.3790130002469676,-1.2706633334028472,1.0,"[[1 1 1 1 1 4 4 4 4 4]
 [1 1 1 1 1 1 4 4 4 4]
 [1 1 1 1 1 3 3 4 4 4]
 [1 1 1 1 3 3 3 5 5 5]
 [2 2 2 3 3 3 5 5 5 5]
 [2 2 2 2 3 3 5 5 5 5]
 [2 2 2 2 2 5 5 5 5 5]
 [2 2 2 2 2 6 6 6 5 5]
 [2 2 2 2 6 6 6 6 6 6]
 [2 2 2 6 6 6 6 6 6 6]]","[[4 4 4 4 4 3 1 1 1 6]
 [4 4 4 4 3 1 1 1 6 6]
 [4 4 4 3 3 1 1 6 6 6]
 [4 4 3 3 1 1 6 6 6 6]
 [4 3 3 3 1 6 6 6 6 6]
 [2 2 2 1 6 6 6 6 6 5]
 [2 2 2 2 2 6 6 6 5 5]
 [2 2 2 2 2 2 5 5 5 5]
 [2 2 2 2 2 2 5 5 5 5]
 [2 2 2 2 2 2 5 5 5 5]]","[[6 4]
 [4 5]
 [5 5]
 [2 6]
 [3 6]
 [4 6]
 [1 7]
 [2 7]
 [3 7]
 [1 8]
 [2 8]
 [1 9]]",[190 193 196 199 202 205],0,[1.5   0.004 2.    1.   ],0.195808117670418
eb,03-12-2022,78.0,78.0,1.0,0.0,1.0,1.0,0.0,56275.0,42788.0,6.0,2.2619796304652966,-0.2801524484321008,1.3064928337700592,-0.7012085014359407,0.025695761212690807,-1.373607761542828,-0.5048848436986723,1.0,1.0,1.0,0.0,1.173031413287717,-1.2569937105659874,1.373607761542828,-1.2706633334028472,0.2,"[[1 1 3 3 3 3 5 5 5 5]
 [1 1 3 3 3 3 3 5 5 5]
 [1 1 1 3 3 3 3 5 5 5]
 [1 1 1 1 3 6 6 6 6 6]
 [1 1 1 4 6 6 6 6 6 6]
 [1 1 4 4 4 6 6 6 6 2]
 [4 4 4 4 4 6 6 6 2 2]
 [4 4 4 4 4 6 6 6 2 2]
 [4 4 4 4 4 4 6 2 2 2]
 [4 4 4 4 4 4 2 2 2 2]]","[[2 2 2 2 2 6 6 6 6 6]
 [2 2 2 2 2 6 6 6 6 6]
 [2 2 2 2 2 6 6 6 6 6]
 [2 2 2 2 4 4 6 6 6 6]
 [5 5 5 5 4 4 4 6 6 6]
 [5 5 5 1 1 4 4 4 6 6]
 [5 5 5 1 1 1 3 3 3 3]
 [5 5 1 1 1 3 3 3 3 3]
 [5 1 1 1 3 3 3 3 3 3]
 [5 1 1 3 3 3 3 3 3 3]]","[[ 9  2]
 [10  2]
 [ 8  3]
 [ 9  3]
 [10  3]
 [ 6  4]
 [ 7  4]
 [ 8  4]
 [ 9  4]
 [ 6  5]
 [ 7  5]
 [ 8  5]
 [ 7  6]]",[190 193 196 199 202 205],0,[1.5   0.004 2.    1.   ],0.17466454392517552
eb,03-12-2022,79.0,79.0,1.0,0.0,2.0,0.0,0.0,69864.0,0.0,7.0,1.5811918033698706,0.7052589072910818,-1.0441599797780863,-1.1599644722805211,0.6458641663872224,1.3303146215703165,0.8852618459559989,1.0,1.0,1.0,1.0,0.5161558182441276,1.4485679570263148,-1.3303146215703165,1.2509944030584492,1.0,"[[6 6 6 6 5 5 5 5 5 5]
 [6 6 6 6 6 5 5 5 5 5]
 [6 6 6 6 6 5 5 5 3 3]
 [6 6 6 2 2 5 5 3 3 3]
 [6 2 2 2 2 2 3 3 3 3]
 [1 1 2 2 2 2 3 3 3 3]
 [1 1 1 2 2 2 3 3 3 4]
 [1 1 1 1 1 2 4 4 4 4]
 [1 1 1 1 1 4 4 4 4 4]
 [1 1 1 1 1 4 4 4 4 4]]","[[6 6 6 6 5 5 5 5 5 5]
 [6 6 6 6 6 5 5 5 5 5]
 [6 6 6 6 6 5 5 5 3 3]
 [6 6 6 2 2 5 5 3 3 3]
 [6 2 2 2 2 2 3 3 3 3]
 [1 1 2 2 2 2 3 3 3 3]
 [1 1 1 2 2 2 3 3 3 4]
 [1 1 1 1 1 2 4 4 4 4]
 [1 1 1 1 1 4 4 4 4 4]
 [1 1 1 1 1 4 4 4 4 4]]","[[1 1]
 [2 1]
 [3 1]
 [4 1]
 [5 1]
 [1 2]
 [2 2]
 [3 2]
 [4 2]
 [1 3]
 [2 3]
 [3 3]
 [4 3]
 [1 4]
 [2 4]
 [3 4]
 [2 5]
 [3 5]]",[190 193 196 199 202 205],0,[1.5   0.004 2.    1.   ],
eb,03-12-2022,80.0,80.0,1.0,0.7069299823886379,2.0,1.0,0.0,52921.0,4067.0,8.0,0.28749447341172674,-0.4772347195767373,-0.8090946984232718,-0.2424525305913606,-0.8283794768627742,1.2398178933536008,0.9061674805439484,1.0,1.0,1.0,0.0,1.1852684997255079,1.4485679570263148,-1.2398178933536008,1.2509944030584492,1.0,"[[6 6 6 6 6 4 4 4 4 4]
 [6 6 6 6 6 4 4 4 4 4]
 [2 2 6 6 6 4 4 4 4 4]
 [2 2 2 2 2 5 5 4 4 4]
 [2 2 2 2 1 5 5 5 5 5]
 [2 2 1 1 1 5 5 5 5 5]
 [2 1 1 1 1 5 5 5 3 3]
 [1 1 1 1 1 3 3 3 3 3]
 [1 1 1 1 1 3 3 3 3 3]
 [1 1 1 1 1 3 3 3 3 3]]","[[1 1 1 1 1 5 5 5 5 5]
 [1 1 1 1 6 5 5 5 5 5]
 [1 1 1 6 6 5 5 5 5 5]
 [1 1 6 6 6 6 5 5 5 5]
 [4 4 6 6 6 6 6 3 5 5]
 [4 4 4 2 2 2 3 3 3 3]
 [4 4 4 2 2 3 3 3 3 3]
 [4 4 4 4 2 3 3 3 3 3]
 [4 4 4 4 3 3 3 3 3 3]
 [4 4 4 4 3 3 3 3 3 3]]","[[4 3]
 [5 3]
 [3 4]
 [4 4]
 [5 4]
 [2 5]
 [3 5]
 [4 5]
 [5 5]
 [4 6]
 [5 6]
 [5 7]]",[190 193 196 199 202 205],0,[1.5   0.004 2.    1.   ],0.20830732379970057
eb,03-12-2022,81.0,1.0,2.0,0.0,2.0,1.0,1.0,27790.0,16563.0,7.0,0.35567794900998045,-1.6597283464445562,0.13116642699598652,0.4456814256755096,-1.8901213767814415,-1.6075782463760793,-0.5048848436986723,1.0,1.0,1.0,1.0,2.90295714186625,-1.2569937105659874,1.6075782463760793,-1.2706633334028472,1.0,"[[2 2 2 2 2 2 5 5 5 5]
 [2 2 2 2 2 5 5 5 5 5]
 [2 2 2 4 4 4 5 5 5 5]
 [2 4 4 4 4 4 1 5 5 5]
 [4 4 4 4 4 1 1 1 5 5]
 [4 4 4 4 4 1 1 1 1 1]
 [6 6 6 6 6 3 3 3 3 3]
 [6 6 6 6 6 3 3 3 3 3]
 [6 6 6 6 6 3 3 3 3 3]
 [6 6 6 6 6 3 3 3 3 3]]","[[3 3 2 2 2 2 5 5 5 5]
 [3 3 2 2 2 2 5 5 5 5]
 [3 3 3 2 2 2 5 5 5 5]
 [3 3 3 2 2 2 1 5 5 5]
 [3 3 3 3 6 1 1 4 4 5]
 [3 3 6 6 6 1 1 4 4 4]
 [6 6 6 6 6 1 4 4 4 4]
 [6 6 6 6 6 6 4 4 4 4]
 [6 6 6 6 6 6 4 4 4 4]
 [6 6 6 6 6 6 4 4 4 4]]","[[5 6]
 [6 6]
 [7 6]
 [4 7]
 [5 7]
 [6 7]]",[190 193 196 199 202 205],0,[1.5   0.004 2.    1.   ],0.3399014310275606
eb,03-12-2022,82.0,2.0,2.0,-1.4138599647772758,2.0,0.0,0.0,8043.0,0.0,2.0,0.6273762845348141,-0.08307017728746428,1.5415581151248738,0.4456814256755096,0.2725414350520206,-1.3616690501472923,-0.5048848436986723,1.0,1.0,1.0,1.0,1.084759236461951,-1.2569937105659874,1.3616690501472923,-1.2706633334028472,1.0,"[[2 2 2 2 3 3 3 3 3 3]
 [2 2 2 2 2 3 3 3 3 3]
 [2 2 2 2 2 3 3 3 3 3]
 [6 6 2 2 2 3 5 5 5 5]
 [6 6 6 6 6 5 5 5 5 5]
 [6 6 6 6 4 5 5 5 5 5]
 [6 6 6 4 4 1 5 5 5 5]
 [6 4 4 4 1 1 1 5 5 5]
 [4 4 4 4 1 1 1 1 5 5]
 [4 4 4 1 1 1 1 1 1 5]]","[[2 2 2 2 3 3 3 3 3 3]
 [2 2 2 2 2 3 3 3 3 3]
 [2 2 2 2 2 3 3 3 3 3]
 [6 6 2 2 2 3 5 5 5 5]
 [6 6 6 6 6 5 5 5 5 5]
 [6 6 6 6 4 5 5 5 5 5]
 [6 6 6 4 4 1 5 5 5 5]
 [6 4 4 4 1 1 1 5 5 5]
 [4 4 4 4 1 1 1 1 5 5]
 [4 4 4 1 1 1 1 1 1 5]]","[[10  4]
 [ 8  5]
 [ 9  5]
 [10  5]
 [ 7  6]
 [ 8  6]
 [ 9  6]
 [10  6]
 [ 8  7]
 [ 9  7]
 [10  7]
 [ 9  8]
 [10  8]
 [10  9]]",[190 193 196 199 202 205],0,[1.5   0.004 2.    1.   ],
eb,03-12-2022,83.0,3.0,2.0,-0.7069299823886379,1.0,1.0,1.0,1565.0,4492.0,5.0,1.5817063405128382,0.3110943650018087,-0.5740294170684572,-1.1599644722805211,0.025695761212690807,1.2998363113115627,0.8904010379361199,1.0,1.0,1.0,1.0,0.7415056657592701,1.4485679570263148,-1.2998363113115627,1.2509944030584492,0.2,"[[6 6 6 5 5 5 5 5 2 2]
 [6 6 6 6 5 5 5 2 2 2]
 [6 6 6 6 5 5 2 2 2 2]
 [6 6 6 6 5 2 2 2 2 2]
 [1 1 1 1 4 2 2 2 2 2]
 [1 1 1 1 4 4 4 4 2 2]
 [1 1 1 3 4 4 4 4 4 4]
 [1 1 3 3 3 4 4 4 4 4]
 [1 3 3 3 3 4 4 4 4 4]
 [3 3 3 3 3 4 4 4 4 4]]","[[4 4 4 4 4 4 3 3 3 3]
 [6 4 4 4 4 4 3 3 3 3]
 [6 6 6 4 4 4 5 5 5 5]
 [6 6 6 6 4 5 5 5 5 5]
 [6 6 6 6 6 5 5 5 5 5]
 [1 6 6 6 2 2 5 5 5 5]
 [1 1 1 2 2 2 2 2 5 5]
 [1 1 1 2 2 2 2 2 2 5]
 [1 1 1 2 2 2 2 2 2 2]
 [1 1 1 2 2 2 2 2 2 2]]","[[2 1]
 [3 1]
 [4 1]
 [5 1]
 [3 2]
 [4 2]
 [5 2]
 [6 2]
 [3 3]
 [4 3]
 [5 3]
 [6 3]
 [4 4]
 [5 4]
 [6 4]
 [5 5]]",[190 193 196 199 202 205],0,[1.5   0.004 2.    1.   ],0.1425139141736542
eb,03-12-2022,84.0,4.0,2.0,1.4138599647772758,2.0,0.0,0.0,68448.0,0.0,10.0,0.28691014100961826,0.5081766361464453,-0.3389641357136426,0.9044373965200898,-0.6538332269844213,-0.29426132883683825,2.2802312510813993,1.0,1.0,1.0,1.0,0.7260611622838105,-0.20284607954809,0.29426132883683825,-0.2620002388183286,1.0,"[[6 6 6 6 5 5 5 5 5 5]
 [6 6 6 6 6 5 5 5 5 5]
 [6 6 6 6 1 3 5 5 5 5]
 [6 1 1 1 1 3 3 3 3 3]
 [1 1 1 1 1 3 3 3 3 3]
 [2 2 1 1 3 3 3 3 3 3]
 [2 2 2 2 4 4 4 4 4 4]
 [2 2 2 2 4 4 4 4 4 4]
 [2 2 2 2 4 4 4 4 4 4]
 [2 2 2 2 2 4 4 4 4 4]]","[[6 6 6 6 5 5 5 5 5 5]
 [6 6 6 6 6 5 5 5 5 5]
 [6 6 6 6 1 3 5 5 5 5]
 [6 1 1 1 1 3 3 3 3 3]
 [1 1 1 1 1 3 3 3 3 3]
 [2 2 1 1 3 3 3 3 3 3]
 [2 2 2 2 4 4 4 4 4 4]
 [2 2 2 2 4 4 4 4 4 4]
 [2 2 2 2 4 4 4 4 4 4]
 [2 2 2 2 2 4 4 4 4 4]]","[[ 6  5]
 [ 3  6]
 [ 4  6]
 [ 5  6]
 [ 6  6]
 [ 4  7]
 [ 5  7]
 [ 6  7]
 [ 4  8]
 [ 5  8]
 [ 6  8]
 [ 4  9]
 [ 5  9]
 [ 6  9]
 [ 4 10]
 [ 5 10]
 [ 6 10]]",[190 193 196 199 202 205],0,[1.5   0.004 2.    1.   ],
eb,03-12-2022,85.0,5.0,2.0,0.7069299823886379,2.0,1.0,1.0,13027.0,33003.0,8.0,0.2872412627041464,-1.0684815330106467,-0.3389641357136426,-0.47183051601365067,-1.4758340333920659,1.2458592125189285,0.9280455654385631,1.0,1.0,1.0,1.0,1.1406003294385447,1.4485679570263148,-1.2458592125189285,1.2509944030584492,1.0,"[[4 4 4 4 4 1 1 1 1 1]
 [4 4 4 4 4 4 1 1 1 1]
 [3 4 4 4 4 4 5 5 5 5]
 [3 3 4 4 4 4 5 5 5 5]
 [3 3 3 3 4 5 5 5 5 5]
 [3 3 3 6 6 5 5 5 5 5]
 [3 3 6 6 6 6 5 5 5 5]
 [3 3 6 6 6 6 2 2 5 5]
 [3 6 6 6 6 2 2 2 2 2]
 [6 6 6 6 2 2 2 2 2 2]]","[[4 4 4 4 3 3 3 3 3 3]
 [4 4 4 4 4 3 3 3 3 3]
 [4 4 4 4 6 1 3 3 3 3]
 [4 4 4 4 6 1 1 1 1 3]
 [4 4 4 6 6 6 1 1 2 2]
 [4 4 6 6 6 6 1 2 2 2]
 [5 5 5 5 5 2 2 2 2 2]
 [5 5 5 5 5 5 2 2 2 2]
 [5 5 5 5 5 5 5 2 2 2]
 [5 5 5 5 5 5 5 2 2 2]]","[[6 3]
 [5 4]
 [6 4]
 [3 5]
 [4 5]
 [5 5]
 [6 5]
 [5 6]
 [6 6]]",[190 193 196 199 202 205],0,[1.5   0.004 2.    1.   ],0.2385332126102278
eb,03-12-2022,86.0,6.0,2.0,0.7069299823886379,1.0,1.0,1.0,88192.0,30749.0,8.0,0.2196388732168784,-0.8713992618660102,-1.0441599797780863,-0.013074545169070535,-0.3898541920862165,0.8502840578975345,-0.5048848436986723,1.0,1.0,1.0,1.0,0.06300317588805254,0.8885195512674522,-0.8502840578975345,0.74666285576619,0.2,"[[6 6 6 6 6 5 5 5 5 5]
 [6 6 6 6 6 6 5 5 5 5]
 [1 1 1 6 6 3 3 3 5 5]
 [1 1 1 1 1 3 3 3 3 3]
 [1 1 1 1 2 3 3 3 3 3]
 [1 1 2 2 2 2 3 3 3 4]
 [2 2 2 2 2 2 3 4 4 4]
 [2 2 2 2 2 2 4 4 4 4]
 [2 2 2 2 2 2 4 4 4 4]
 [2 2 2 2 2 2 4 4 4 4]]","[[1 1 1 1 5 5 3 3 3 3]
 [1 1 1 1 5 5 3 3 3 3]
 [1 1 1 1 5 5 3 3 4 4]
 [1 1 1 1 5 5 4 4 4 4]
 [1 1 1 1 5 5 4 4 4 4]
 [6 6 6 6 2 2 2 4 4 4]
 [6 6 6 6 2 2 2 2 2 2]
 [6 6 6 6 2 2 2 2 2 2]
 [6 6 6 6 6 2 2 2 2 2]
 [6 6 6 6 6 2 2 2 2 2]]","[[1 5]
 [2 5]
 [3 5]
 [4 5]
 [5 5]
 [1 6]
 [2 6]
 [3 6]
 [4 6]
 [5 6]]",[190 193 196 199 202 205],0,[1.5   0.004 2.    1.   ],0.2762104778910622
eb,03-12-2022,87.0,7.0,2.0,0.7069299823886379,2.0,0.0,0.0,44340.0,0.0,8.0,0.6954769797094358,0.11401209385717222,-1.279225261132901,1.1338153819423797,1.0155209311014983,0.7927966365366802,2.2919089379157267,1.0,1.0,1.0,1.0,0.4880523839222984,0.8885195512674433,-0.7927966365366802,0.74666285576619,1.0,"[[6 6 6 6 6 6 5 5 5 5]
 [6 6 6 6 6 5 5 5 5 5]
 [6 4 4 4 4 4 5 5 5 5]
 [4 4 4 4 4 4 4 1 5 5]
 [4 4 4 4 4 4 1 1 1 1]
 [3 3 4 4 4 1 1 1 1 1]
 [3 3 3 4 2 2 2 2 2 2]
 [3 3 3 3 2 2 2 2 2 2]
 [3 3 3 3 3 2 2 2 2 2]
 [3 3 3 3 3 2 2 2 2 2]]","[[6 6 6 6 6 6 5 5 5 5]
 [6 6 6 6 6 5 5 5 5 5]
 [6 4 4 4 4 4 5 5 5 5]
 [4 4 4 4 4 4 4 1 5 5]
 [4 4 4 4 4 4 1 1 1 1]
 [3 3 4 4 4 1 1 1 1 1]
 [3 3 3 4 2 2 2 2 2 2]
 [3 3 3 3 2 2 2 2 2 2]
 [3 3 3 3 3 2 2 2 2 2]
 [3 3 3 3 3 2 2 2 2 2]]","[[ 2  6]
 [ 1  7]
 [ 2  7]
 [ 3  7]
 [ 1  8]
 [ 2  8]
 [ 3  8]
 [ 1  9]
 [ 2  9]
 [ 3  9]
 [ 4  9]
 [ 1 10]
 [ 2 10]
 [ 3 10]
 [ 4 10]]",[190 193 196 199 202 205],0,[1.5   0.004 2.    1.   ],
eb,03-12-2022,88.0,8.0,2.0,-1.4138599647772758,2.0,1.0,1.0,42460.0,47308.0,3.0,1.3081381413012574,-0.8713992618660102,0.6012969897056156,0.6750594110977998,-1.087202746140046,1.5086797778822483,-0.5048848436986723,1.0,1.0,1.0,1.0,-0.8026364781681397,1.4485679570263192,-1.5086797778822483,1.2509944030584492,1.0,"[[1 1 1 1 1 1 6 6 6 6]
 [1 1 1 1 1 1 6 6 6 6]
 [1 1 1 1 1 1 6 6 6 6]
 [4 4 4 1 1 5 5 5 6 6]
 [4 4 4 4 4 5 5 5 5 5]
 [4 4 4 4 3 3 5 5 5 5]
 [4 4 3 3 3 3 2 2 2 2]
 [4 3 3 3 3 3 2 2 2 2]
 [3 3 3 3 3 3 2 2 2 2]
 [3 3 3 3 3 2 2 2 2 2]]","[[4 4 4 3 3 3 3 3 3 3]
 [5 4 4 4 3 3 3 3 3 3]
 [5 5 4 4 4 3 3 3 2 2]
 [5 5 5 4 4 4 6 2 2 2]
 [5 5 5 5 4 6 6 2 2 2]
 [5 5 5 5 1 6 6 2 2 2]
 [5 5 5 1 1 1 6 6 2 2]
 [5 1 1 1 1 1 6 6 2 2]
 [1 1 1 1 1 1 1 6 2 2]
 [1 1 1 1 1 1 1 1 2 2]]","[[5 6]
 [6 6]
 [4 7]
 [5 7]
 [6 7]
 [7 7]
 [8 7]
 [7 8]
 [8 8]
 [9 8]]",[190 193 196 199 202 205],0,[1.5   0.004 2.    1.   ],0.24199338950591145
eb,03-12-2022,89.0,9.0,2.0,0.0,1.0,1.0,1.0,16885.0,30036.0,6.0,-0.12164695881683076,-1.0684815330106467,-1.279225261132901,-0.47183051601365067,0.2725414350520206,-0.766096926710038,0.9280455654385631,1.0,1.0,1.0,1.0,0.41529695074782935,-0.7344917868892018,0.766096926710038,-0.7663317861105879,0.2,"[[2 2 2 2 3 3 3 3 3 3]
 [2 2 2 4 4 3 3 3 3 3]
 [2 2 4 4 4 3 3 3 3 3]
 [2 2 4 4 4 3 3 6 6 6]
 [2 4 4 4 4 6 6 6 6 6]
 [1 1 4 4 4 6 6 6 6 6]
 [1 1 1 1 1 6 6 5 5 5]
 [1 1 1 1 1 5 5 5 5 5]
 [1 1 1 1 1 5 5 5 5 5]
 [1 1 1 1 1 5 5 5 5 5]]","[[1 1 2 2 2 2 5 5 5 5]
 [1 1 1 2 2 2 5 5 5 5]
 [1 1 1 1 2 6 6 5 5 5]
 [1 1 1 1 2 6 6 6 5 5]
 [1 1 1 1 6 6 6 6 6 5]
 [4 4 4 4 6 6 3 3 3 3]
 [4 4 4 4 3 3 3 3 3 3]
 [4 4 4 4 4 3 3 3 3 3]
 [4 4 4 4 4 3 3 3 3 3]
 [4 4 4 4 4 3 3 3 3 3]]","[[1 3]
 [1 4]
 [2 4]
 [1 5]
 [2 5]
 [3 5]
 [4 5]
 [1 6]
 [2 6]]",[190 193 196 199 202 205],0,[1.5   0.004 2.    1.   ],0.24224319502577474
eb,03-12-2022,90.0,10.0,2.0,0.7069299823886379,1.0,1.0,0.0,83625.0,36923.0,8.0,3.9639824726878703,1.0994234495803548,-0.5740294170684572,1.1338153819423797,0.025695761212690807,-1.1419344599653913,-0.5048848436986723,1.0,1.0,1.0,0.0,-0.539909453203079,-1.2569937105659874,1.1419344599653913,-1.2706633334028472,0.2,"[[6 1 1 1 2 2 2 2 2 2]
 [6 6 1 1 2 2 2 2 2 2]
 [6 6 1 1 1 2 2 2 2 2]
 [6 6 6 1 5 5 5 5 5 2]
 [6 6 6 5 5 5 5 5 5 5]
 [6 6 6 5 5 5 5 4 4 4]
 [3 3 3 3 5 4 4 4 4 4]
 [3 3 3 3 4 4 4 4 4 4]
 [3 3 3 3 4 4 4 4 4 4]
 [3 3 3 3 4 4 4 4 4 4]]","[[5 4 4 4 4 4 4 6 6 1]
 [5 5 4 4 4 4 6 6 1 1]
 [5 5 5 4 4 6 6 1 1 1]
 [5 5 5 6 6 6 6 1 1 1]
 [5 5 5 5 6 6 1 1 1 1]
 [5 3 3 3 3 1 1 1 1 1]
 [3 3 3 3 3 3 1 1 2 2]
 [3 3 3 3 3 2 2 2 2 2]
 [3 3 3 3 3 2 2 2 2 2]
 [3 3 3 3 3 2 2 2 2 2]]","[[ 6  6]
 [ 5  7]
 [ 6  7]
 [ 7  7]
 [ 3  8]
 [ 4  8]
 [ 5  8]
 [ 6  8]
 [ 7  8]
 [ 2  9]
 [ 3  9]
 [ 4  9]
 [ 5  9]
 [ 6  9]
 [ 1 10]
 [ 2 10]
 [ 3 10]
 [ 4 10]
 [ 5 10]
 [ 6 10]]",[190 193 196 199 202 205],0,[1.5   0.004 2.    1.   ],0.1253898547193439
eb,03-12-2022,91.0,11.0,2.0,-0.7069299823886379,1.0,1.0,1.0,54860.0,6849.0,4.0,3.215866567705055,-0.2801524484321008,-0.10389885435882802,0.9044373965200898,-0.8283794768627742,1.481894654478754,0.9012594575890374,1.0,1.0,1.0,1.0,-0.6045932328764447,1.4485679570263148,-1.481894654478754,1.2509944030584492,0.2,"[[1 1 1 1 1 1 4 4 4 4]
 [1 1 1 1 1 4 4 4 4 4]
 [6 6 6 1 4 4 4 4 4 4]
 [6 6 6 6 2 2 4 4 4 4]
 [6 6 6 6 2 2 2 2 2 4]
 [6 6 6 6 5 2 2 2 2 2]
 [6 6 5 5 5 3 3 3 3 2]
 [5 5 5 5 5 3 3 3 3 3]
 [5 5 5 5 3 3 3 3 3 3]
 [5 5 5 5 3 3 3 3 3 3]]","[[3 3 3 3 3 4 4 4 4 4]
 [3 3 3 3 3 4 4 4 4 4]
 [2 2 3 3 3 4 4 4 4 4]
 [2 2 2 3 3 6 6 6 6 6]
 [2 2 2 2 6 6 6 6 6 1]
 [2 2 2 2 6 6 6 1 1 1]
 [2 2 2 2 1 1 1 1 1 1]
 [5 5 5 5 1 1 1 1 1 1]
 [5 5 5 5 5 1 1 1 1 1]
 [5 5 5 5 5 5 1 1 1 1]]","[[ 5  5]
 [ 6  5]
 [ 4  6]
 [ 5  6]
 [ 6  6]
 [ 4  7]
 [ 5  7]
 [ 6  7]
 [ 4  8]
 [ 5  8]
 [ 4  9]
 [ 5  9]
 [ 4 10]]",[190 193 196 199 202 205],0,[1.5   0.004 2.    1.   ],0.20127922015141425
eb,03-12-2022,92.0,12.0,2.0,0.0,2.0,1.0,0.0,32670.0,31027.0,6.0,2.056958491457726,2.2819170764481735,0.3662317083508011,1.36319336736467,0.1516235055884461,0.49007028791417584,5.00605282490495,1.0,1.0,1.0,0.0,2.726343677689211,0.8885195512674343,-0.49007028791417584,0.74666285576619,1.0,"[[1 1 1 1 1 1 2 2 2 2]
 [1 1 1 1 1 1 2 2 2 2]
 [1 1 1 1 1 2 2 2 2 2]
 [5 5 5 5 5 2 2 2 2 2]
 [5 5 5 5 5 3 3 2 2 2]
 [6 6 6 6 6 3 3 3 3 2]
 [6 6 6 6 6 3 3 3 3 3]
 [6 6 6 6 4 4 4 4 4 3]
 [6 6 6 6 4 4 4 4 4 4]
 [6 6 6 4 4 4 4 4 4 4]]","[[3 3 3 2 2 2 2 2 2 2]
 [3 3 3 3 2 2 2 2 5 5]
 [3 3 3 3 2 2 2 5 5 5]
 [3 3 3 4 4 4 5 5 5 5]
 [3 3 6 4 4 1 5 5 5 5]
 [6 6 6 6 4 1 1 5 5 5]
 [6 6 6 6 6 1 1 5 5 5]
 [6 6 6 6 6 1 1 5 5 5]
 [6 6 6 6 6 6 1 1 5 5]
 [6 6 6 6 6 6 1 1 5 5]]","[[ 4  7]
 [ 5  7]
 [ 3  8]
 [ 4  8]
 [ 5  8]
 [ 6  8]
 [ 7  8]
 [ 8  8]
 [ 2  9]
 [ 3  9]
 [ 4  9]
 [ 5  9]
 [ 6  9]
 [ 7  9]
 [ 8  9]
 [ 9  9]
 [10  9]
 [ 2 10]
 [ 3 10]
 [ 4 10]
 [ 5 10]
 [ 6 10]
 [ 7 10]
 [ 8 10]
 [ 9 10]
 [10 10]]",[190 193 196 199 202 205],0,[1.5   0.004 2.    1.   ],0.11123366655567853
eb,03-12-2022,93.0,13.0,2.0,-0.7069299823886379,1.0,0.0,0.0,65582.0,0.0,4.0,0.014932624448221675,0.5081766361464453,1.5415581151248738,1.1338153819423797,1.0155209311014983,-0.8154339362693338,0.8876732036913636,1.0,1.0,1.0,1.0,0.7800838266162269,-0.7344917868892108,0.8154339362693338,-0.7663317861105879,0.2,"[[3 3 3 3 6 6 6 6 6 6]
 [3 3 3 3 3 6 6 6 6 6]
 [3 3 3 3 3 6 6 6 6 4]
 [1 1 1 1 1 4 4 4 4 4]
 [1 1 1 1 1 4 4 4 4 4]
 [1 1 1 1 5 5 4 4 4 4]
 [1 1 5 5 5 5 2 2 2 2]
 [1 5 5 5 5 5 2 2 2 2]
 [5 5 5 5 5 5 2 2 2 2]
 [5 5 5 5 5 2 2 2 2 2]]","[[3 3 3 3 6 6 6 6 6 6]
 [3 3 3 3 3 6 6 6 6 6]
 [3 3 3 3 3 6 6 6 6 4]
 [1 1 1 1 1 4 4 4 4 4]
 [1 1 1 1 1 4 4 4 4 4]
 [1 1 1 1 5 5 4 4 4 4]
 [1 1 5 5 5 5 2 2 2 2]
 [1 5 5 5 5 5 2 2 2 2]
 [5 5 5 5 5 5 2 2 2 2]
 [5 5 5 5 5 2 2 2 2 2]]","[[10  6]
 [ 7  7]
 [ 8  7]
 [ 9  7]
 [10  7]
 [ 7  8]
 [ 8  8]
 [ 9  8]
 [10  8]
 [ 7  9]
 [ 8  9]
 [ 9  9]
 [10  9]
 [ 7 10]
 [ 8 10]
 [ 9 10]
 [10 10]]",[190 193 196 199 202 205],0,[1.5   0.004 2.    1.   ],
eb,03-12-2022,94.0,14.0,2.0,-1.4138599647772758,2.0,0.0,1.0,56851.0,0.0,2.0,0.015148502807889534,-0.08307017728746428,-1.279225261132901,-1.389342457702811,1.3530968996469848,1.317421684338336,0.897093094945873,1.0,1.0,1.0,0.0,0.6114833286796726,1.4485679570263148,-1.317421684338336,1.2509944030584492,1.0,"[[6 6 6 6 1 1 1 1 1 1]
 [6 6 6 6 3 3 1 1 1 1]
 [6 6 6 6 3 3 3 3 3 3]
 [4 4 6 6 3 3 3 3 3 3]
 [4 4 4 4 3 3 3 3 3 3]
 [4 4 4 4 5 3 3 2 2 2]
 [4 4 5 5 5 2 2 2 2 2]
 [5 5 5 5 5 2 2 2 2 2]
 [5 5 5 5 5 2 2 2 2 2]
 [5 5 5 5 5 2 2 2 2 2]]","[[6 6 6 6 1 1 1 1 1 1]
 [6 6 6 6 3 3 1 1 1 1]
 [6 6 6 6 3 3 3 3 3 3]
 [4 4 6 6 3 3 3 3 3 3]
 [4 4 4 4 3 3 3 3 3 3]
 [4 4 4 4 5 3 3 2 2 2]
 [4 4 5 5 5 2 2 2 2 2]
 [5 5 5 5 5 2 2 2 2 2]
 [5 5 5 5 5 2 2 2 2 2]
 [5 5 5 5 5 2 2 2 2 2]]","[[1 1]
 [2 1]
 [3 1]
 [1 2]
 [2 2]
 [3 2]
 [1 3]
 [2 3]
 [3 3]
 [4 3]
 [1 4]
 [2 4]
 [3 4]
 [4 4]]",[190 193 196 199 202 205],0,[1.5   0.004 2.    1.   ],
eb,03-12-2022,95.0,15.0,2.0,0.7069299823886379,1.0,1.0,1.0,25137.0,48025.0,8.0,2.4662102975844595,-1.0684815330106467,0.13116642699598652,-0.2424525305913606,-2.3902104383465166,-0.3559646482548043,0.9280455654385631,1.0,1.0,1.0,1.0,1.1822817829143166,-0.20284607954808553,0.3559646482548043,-0.2620002388183286,0.2,"[[5 5 5 5 5 5 4 4 4 4]
 [5 5 5 5 5 5 4 4 4 4]
 [5 5 5 5 5 5 4 4 4 4]
 [1 1 1 1 1 1 2 2 2 2]
 [1 1 1 1 1 1 6 2 2 2]
 [1 1 1 1 1 6 6 6 2 2]
 [1 1 1 3 3 6 6 6 6 2]
 [3 3 3 3 3 3 6 6 6 6]
 [3 3 3 3 3 3 6 6 6 6]
 [3 3 3 3 3 3 6 6 6 6]]","[[6 6 6 6 1 1 1 1 1 1]
 [6 6 6 6 6 1 1 1 1 1]
 [6 6 6 6 6 1 1 1 1 1]
 [6 6 6 6 3 3 4 4 4 4]
 [2 6 6 6 3 3 4 4 5 5]
 [2 2 2 3 3 3 4 5 5 5]
 [2 2 2 2 3 3 5 5 5 5]
 [2 2 2 2 2 5 5 5 5 5]
 [2 2 2 2 2 5 5 5 5 5]
 [2 2 2 2 2 5 5 5 5 5]]","[[6 4]
 [4 5]
 [5 5]
 [6 5]
 [7 5]
 [4 6]
 [5 6]
 [6 6]
 [7 6]]",[190 193 196 199 202 205],0,[1.5   0.004 2.    1.   ],0.26450234697945435
eb,03-12-2022,96.0,16.0,2.0,1.4138599647772758,2.0,1.0,1.0,58444.0,24180.0,10.0,0.2198125497919495,-1.6597283464445562,-0.10389885435882802,-0.7012085014359407,-1.3088790324297854,-1.4799732536117425,-0.5048848436986723,1.0,1.0,1.0,1.0,1.9594742053948906,-1.2569937105659874,1.4799732536117425,-1.2706633334028472,1.0,"[[1 1 1 1 1 1 1 4 4 4]
 [2 1 1 1 1 1 4 4 4 4]
 [2 2 1 1 1 4 4 4 4 4]
 [2 2 2 1 4 4 4 5 5 5]
 [2 2 2 2 5 5 5 5 5 5]
 [2 2 3 3 5 5 5 5 6 6]
 [3 3 3 3 3 5 6 6 6 6]
 [3 3 3 3 3 6 6 6 6 6]
 [3 3 3 3 3 6 6 6 6 6]
 [3 3 3 3 3 6 6 6 6 6]]","[[2 2 2 5 5 5 5 5 5 5]
 [2 2 2 5 5 5 5 5 5 5]
 [2 2 2 2 5 5 6 6 6 6]
 [2 2 2 1 1 6 6 6 6 6]
 [2 2 1 1 1 6 6 6 6 6]
 [4 4 4 4 1 6 6 6 6 6]
 [4 4 4 4 4 3 3 3 3 3]
 [4 4 4 4 4 3 3 3 3 3]
 [4 4 4 4 3 3 3 3 3 3]
 [4 4 4 4 3 3 3 3 3 3]]","[[5 3]
 [4 4]
 [5 4]
 [4 5]
 [5 5]
 [6 5]]",[190 193 196 199 202 205],0,[1.5   0.004 2.    1.   ],0.341297484013018
eb,03-12-2022,97.0,17.0,2.0,1.4138599647772758,1.0,1.0,1.0,97221.0,34141.0,10.0,-0.1890432088177994,0.3110943650018087,0.3662317083508011,-0.47183051601365067,-1.7720663634480065,-1.371856554863881,-0.5048848436986723,1.0,1.0,1.0,1.0,1.1600833805812498,-1.2569937105659874,1.371856554863881,-1.2706633334028472,0.2,"[[5 5 5 2 2 2 1 1 1 1]
 [5 5 5 2 2 2 1 1 1 1]
 [5 5 5 2 2 2 4 4 4 1]
 [5 5 5 2 2 2 4 4 4 4]
 [5 5 5 2 2 2 4 4 4 4]
 [5 5 5 2 2 3 4 4 4 4]
 [6 6 6 6 3 3 3 3 4 4]
 [6 6 6 6 3 3 3 3 3 4]
 [6 6 6 6 3 3 3 3 3 3]
 [6 6 6 6 3 3 3 3 3 3]]","[[5 5 5 5 5 4 4 4 4 4]
 [5 5 5 5 5 4 4 4 4 4]
 [5 5 5 5 5 4 4 4 4 4]
 [5 5 5 1 1 1 4 2 2 2]
 [3 1 1 1 1 1 1 2 2 2]
 [3 3 3 1 1 1 1 2 2 6]
 [3 3 3 3 1 1 6 6 6 6]
 [3 3 3 3 3 1 6 6 6 6]
 [3 3 3 3 3 3 6 6 6 6]
 [3 3 3 3 3 3 6 6 6 6]]","[[5 2]
 [5 3]
 [4 4]
 [5 4]
 [6 4]
 [4 5]
 [5 5]
 [6 5]
 [7 5]
 [4 6]
 [5 6]
 [6 6]
 [7 6]
 [8 6]
 [5 7]
 [6 7]]",[190 193 196 199 202 205],0,[1.5   0.004 2.    1.   ],0.14289798792227665
eb,03-12-2022,98.0,18.0,2.0,-1.4138599647772758,1.0,1.0,1.0,64174.0,9936.0,2.0,0.423892264373901,-1.0684815330106467,-0.10389885435882802,1.36319336736467,0.1516235055884461,-1.339869572312251,-0.5048848436986723,1.0,1.0,1.0,1.0,0.9235787456693112,-1.2569937105659874,1.339869572312251,-1.2706633334028472,0.2,"[[1 1 1 1 1 5 5 5 5 5]
 [1 1 1 1 5 5 5 5 5 5]
 [1 1 1 5 5 5 5 5 5 5]
 [6 6 6 6 5 5 5 5 4 4]
 [6 6 6 6 6 5 4 4 4 4]
 [6 6 6 6 3 3 4 4 4 2]
 [6 6 6 6 3 3 4 4 2 2]
 [6 6 6 3 3 3 3 2 2 2]
 [6 6 3 3 3 3 3 2 2 2]
 [6 3 3 3 3 3 3 2 2 2]]","[[2 2 2 2 2 6 6 6 6 6]
 [2 2 2 2 2 6 6 6 6 6]
 [2 2 2 2 2 6 6 6 6 6]
 [2 2 2 2 5 6 6 6 6 1]
 [2 2 5 5 5 5 1 1 1 1]
 [2 5 5 5 5 5 1 1 1 1]
 [3 3 3 3 5 5 4 4 4 4]
 [3 3 3 3 3 3 4 4 4 4]
 [3 3 3 3 3 3 4 4 4 4]
 [3 3 3 3 3 3 4 4 4 4]]","[[ 5  7]
 [ 6  7]
 [ 5  8]
 [ 6  8]
 [ 5  9]
 [ 6  9]
 [ 4 10]
 [ 5 10]
 [ 6 10]]",[190 193 196 199 202 205],0,[1.5   0.004 2.    1.   ],0.28450755215019674
eb,03-12-2022,99.0,19.0,2.0,-1.4138599647772758,2.0,1.0,1.0,73840.0,48470.0,3.0,0.15276365294112312,-0.6743169907213737,1.3064928337700592,1.1338153819423797,0.6458641663872224,-1.430036702298191,-0.5048848436986723,1.0,1.0,1.0,1.0,1.5902544511367334,-1.2569937105659874,1.430036702298191,-1.2706633334028472,1.0,"[[5 5 5 5 5 5 2 2 2 2]
 [1 1 5 5 5 6 2 2 2 2]
 [1 1 1 1 1 6 6 2 2 2]
 [1 1 1 1 1 6 6 6 6 2]
 [1 1 1 1 1 6 6 6 6 6]
 [4 4 1 1 1 6 6 6 3 3]
 [4 4 4 4 4 3 3 3 3 3]
 [4 4 4 4 4 3 3 3 3 3]
 [4 4 4 4 4 3 3 3 3 3]
 [4 4 4 4 3 3 3 3 3 3]]","[[3 3 3 2 2 2 2 2 2 2]
 [3 3 3 3 2 2 2 2 2 2]
 [3 3 3 3 2 2 2 2 5 5]
 [3 3 3 4 4 4 5 5 5 5]
 [3 3 4 4 4 4 5 5 5 5]
 [3 3 4 4 4 4 1 5 5 5]
 [3 4 4 4 4 1 1 1 5 5]
 [6 6 6 6 6 6 1 1 1 5]
 [6 6 6 6 6 6 6 1 1 1]
 [6 6 6 6 6 6 6 6 6 1]]","[[ 7  6]
 [ 6  7]
 [ 7  7]
 [ 8  7]
 [ 7  8]
 [ 8  8]
 [ 9  8]
 [ 8  9]
 [ 9  9]
 [ 9 10]
 [10 10]]",[190 193 196 199 202 205],0,[1.5   0.004 2.    1.   ],0.20136976477019947
eb,03-12-2022,100.0,20.0,2.0,-0.7069299823886379,2.0,0.0,0.0,86177.0,0.0,4.0,0.6960775435671583,0.5081766361464453,-0.8090946984232718,-0.930586486858231,-0.06136856687254028,-0.2507854856820941,2.2802312510813993,1.0,1.0,1.0,1.0,0.4046104472560653,-0.20284607954809,0.2507854856820941,-0.2620002388183286,1.0,"[[1 3 3 3 6 6 6 6 6 6]
 [1 3 3 3 6 6 6 6 5 5]
 [1 3 3 3 3 5 5 5 5 5]
 [1 1 3 3 3 5 5 5 5 5]
 [1 1 3 3 3 4 4 4 4 4]
 [1 1 1 3 4 4 4 4 4 4]
 [1 2 2 2 4 4 4 4 4 4]
 [2 2 2 2 2 4 4 4 4 4]
 [2 2 2 2 2 4 4 4 4 4]
 [2 2 2 2 2 2 4 4 4 4]]","[[1 3 3 3 6 6 6 6 6 6]
 [1 3 3 3 6 6 6 6 5 5]
 [1 3 3 3 3 5 5 5 5 5]
 [1 1 3 3 3 5 5 5 5 5]
 [1 1 3 3 3 4 4 4 4 4]
 [1 1 1 3 4 4 4 4 4 4]
 [1 2 2 2 4 4 4 4 4 4]
 [2 2 2 2 2 4 4 4 4 4]
 [2 2 2 2 2 4 4 4 4 4]
 [2 2 2 2 2 2 4 4 4 4]]","[[1 2]
 [2 2]
 [3 2]
 [1 3]
 [2 3]
 [3 3]
 [4 3]
 [5 3]
 [1 4]
 [2 4]
 [3 4]
 [4 4]
 [5 4]
 [6 4]
 [3 5]
 [4 5]
 [5 5]]",[190 193 196 199 202 205],0,[1.5   0.004 2.    1.   ],
eb,03-12-2022,101.0,21.0,2.0,-1.4138599647772758,1.0,0.0,0.0,29138.0,0.0,2.0,-0.12097822284552882,1.8877525341589008,1.0714275524152448,1.1338153819423797,0.3118328910707882,-1.3332733506690695,-0.5048848436986723,1.0,1.0,1.0,1.0,0.8748077498743555,-1.2569937105659874,1.3332733506690695,-1.2706633334028472,0.2,"[[2 2 2 2 2 6 6 6 6 6]
 [2 2 2 2 6 6 6 6 6 6]
 [3 3 3 3 3 6 6 6 6 6]
 [3 3 3 3 3 4 4 6 6 6]
 [3 3 3 3 4 4 4 4 1 1]
 [3 3 5 5 5 4 4 1 1 1]
 [5 5 5 5 5 4 1 1 1 1]
 [5 5 5 5 5 1 1 1 1 1]
 [5 5 5 5 5 1 1 1 1 1]
 [5 5 5 5 5 1 1 1 1 1]]","[[2 2 2 2 2 6 6 6 6 6]
 [2 2 2 2 6 6 6 6 6 6]
 [3 3 3 3 3 6 6 6 6 6]
 [3 3 3 3 3 4 4 6 6 6]
 [3 3 3 3 4 4 4 4 1 1]
 [3 3 5 5 5 4 4 1 1 1]
 [5 5 5 5 5 4 1 1 1 1]
 [5 5 5 5 5 1 1 1 1 1]
 [5 5 5 5 5 1 1 1 1 1]
 [5 5 5 5 5 1 1 1 1 1]]","[[ 8  6]
 [ 9  6]
 [10  6]
 [ 7  7]
 [ 8  7]
 [ 9  7]
 [10  7]
 [ 6  8]
 [ 7  8]
 [ 8  8]
 [ 9  8]
 [10  8]
 [ 5  9]
 [ 6  9]
 [ 7  9]
 [ 8  9]
 [ 9  9]
 [10  9]
 [ 5 10]
 [ 6 10]
 [ 7 10]
 [ 8 10]
 [ 9 10]
 [10 10]]",[190 193 196 199 202 205],0,[1.5   0.004 2.    1.   ],
eb,03-12-2022,102.0,22.0,2.0,-0.7069299823886379,2.0,1.0,1.0,55226.0,42633.0,5.0,0.49174461827762656,-1.6597283464445562,-0.5740294170684572,-0.930586486858231,-0.3898541920862165,1.3917452327531272,0.9750393191980459,1.0,1.0,1.0,1.0,0.061951541652631316,1.4485679570263148,-1.3917452327531272,1.2509944030584492,1.0,"[[3 3 3 3 1 1 1 1 1 1]
 [3 3 3 3 1 1 1 1 1 1]
 [3 3 3 3 6 1 1 1 1 1]
 [3 3 3 6 6 1 1 5 5 5]
 [3 6 6 6 6 5 5 5 5 5]
 [6 6 6 6 6 5 5 5 5 5]
 [4 4 4 4 4 2 2 2 2 5]
 [4 4 4 4 4 2 2 2 2 2]
 [4 4 4 4 4 4 2 2 2 2]
 [4 4 4 4 4 4 4 2 2 2]]","[[1 1 1 4 4 4 4 4 3 3]
 [1 1 1 4 4 4 4 3 3 3]
 [1 1 1 1 6 4 3 3 3 3]
 [1 1 6 6 6 3 3 3 3 3]
 [1 6 6 2 2 2 3 3 3 3]
 [2 2 2 2 2 2 3 3 3 3]
 [2 2 2 2 2 2 5 3 3 3]
 [2 2 2 5 5 5 5 5 5 3]
 [2 5 5 5 5 5 5 5 5 5]
 [5 5 5 5 5 5 5 5 5 5]]","[[5 2]
 [4 3]
 [5 3]
 [4 4]
 [3 5]
 [4 5]]",[190 193 196 199 202 205],0,[1.5   0.004 2.    1.   ],0.34102395674860136
eb,03-12-2022,103.0,23.0,2.0,0.0,2.0,0.0,1.0,44133.0,0.0,7.0,1.1732076739266002,0.7052589072910818,0.13116642699598652,-0.7012085014359407,-1.3900323152163665,1.252139958328742,0.8852618459559989,1.0,1.0,1.0,0.0,1.094161891792011,1.4485679570263148,-1.252139958328742,1.2509944030584492,1.0,"[[2 2 2 2 2 4 4 4 4 4]
 [2 2 2 2 2 4 4 4 4 4]
 [2 2 2 2 2 4 4 4 3 3]
 [2 2 2 6 6 6 3 3 3 3]
 [6 6 6 6 6 6 3 3 3 3]
 [6 6 6 6 6 6 6 3 3 3]
 [5 5 5 5 6 6 1 1 1 1]
 [5 5 5 5 5 5 1 1 1 1]
 [5 5 5 5 5 5 1 1 1 1]
 [5 5 5 5 5 5 1 1 1 1]]","[[2 2 2 2 2 4 4 4 4 4]
 [2 2 2 2 2 4 4 4 4 4]
 [2 2 2 2 2 4 4 4 3 3]
 [2 2 2 6 6 6 3 3 3 3]
 [6 6 6 6 6 6 3 3 3 3]
 [6 6 6 6 6 6 6 3 3 3]
 [5 5 5 5 6 6 1 1 1 1]
 [5 5 5 5 5 5 1 1 1 1]
 [5 5 5 5 5 5 1 1 1 1]
 [5 5 5 5 5 5 1 1 1 1]]","[[5 1]
 [6 1]
 [5 2]
 [6 2]
 [5 3]
 [6 3]
 [4 4]
 [5 4]
 [6 4]
 [4 5]
 [5 5]
 [6 5]
 [7 5]
 [4 6]
 [5 6]
 [6 6]
 [7 6]
 [6 7]]",[190 193 196 199 202 205],0,[1.5   0.004 2.    1.   ],
eb,03-12-2022,104.0,24.0,2.0,0.0,2.0,0.0,0.0,60592.0,0.0,6.0,3.3513472814250314,-0.08307017728746428,-1.279225261132901,1.36319336736467,1.3530968996469848,1.4094028782204249,0.897093094945873,1.0,1.0,1.0,1.0,-0.06860516177842971,1.4485679570263148,-1.4094028782204249,1.2509944030584492,1.0,"[[5 5 5 5 5 5 5 6 6 6]
 [1 5 5 5 5 5 5 6 6 6]
 [1 1 1 1 5 5 6 6 6 6]
 [1 1 1 1 1 1 6 6 6 6]
 [4 1 1 1 1 1 2 2 2 2]
 [4 4 1 1 1 1 2 2 2 2]
 [4 4 4 1 1 3 2 2 2 2]
 [4 4 4 4 3 3 3 3 2 2]
 [4 4 4 4 3 3 3 3 3 2]
 [4 4 4 4 3 3 3 3 3 3]]","[[5 5 5 5 5 5 5 6 6 6]
 [1 5 5 5 5 5 5 6 6 6]
 [1 1 1 1 5 5 6 6 6 6]
 [1 1 1 1 1 1 6 6 6 6]
