trialId,trialNo,blockNo,cutNo,expCond,control,keyCode,reactionTime,segSize,segCenterX,segCenterY,segCentDist,intDiff,intStd,segNcut,segStab,leaf,correct,meanImgInt,meanSegInt,deltaInt,expTime,expType,participantID
1,1,1,5,1,1,0,0.31130973480395324,0.4358974358974359,0.8235294117647058,0.7058823529411765,0.5919690451597532,0.3829879476285429,0.7858395890060033,,,1,0,0.5878378378378412,0.3789473684210672,0.6170120523714572,0.5,1,my
2,2,1,2,2,0,0,0.4406381429570518,0.15384615384615385,0.23529411764705882,0.0,0.8721718641894848,0.9604612850082374,0.0,,,1,1,0.317567567567567,1.0,0.039538714991762786,0.8,1,my
3,3,1,2,1,1,1,0.024317507154421915,0.41025641025641024,0.5882352941176471,0.17647058823529413,0.47140452079103157,0.1768259198242723,0.37153629121025983,,,1,1,0.3783783783783801,0.06666666666666667,0.8231740801757278,0.5,1,my
4,4,1,5,1,0,0,0.00018510484256165186,0.38461538461538464,0.4117647058823529,0.17647058823529413,0.4978586625371179,0.380560131795717,0.0,,,1,1,0.668918918918919,0.4,0.6194398682042832,0.5,1,my
5,5,1,2,1,1,1,0.3399414507566378,0.28205128205128205,0.8235294117647058,0.7058823529411765,0.5919690451597532,0.054365733113674285,0.0,,,1,1,0.6554054054054049,0.0,0.9456342668863257,0.5,1,my
6,6,1,5,2,0,1,0.2824977041525079,0.23076923076923078,0.35294117647058826,0.23529411764705882,0.4622501635210246,0.006589785831961001,0.0,,,1,0,0.8513513513513521,0.0,0.9934102141680391,0.8,1,my
7,7,1,5,1,1,1,0.052878397409490206,0.23076923076923078,0.23529411764705882,0.47058823529411764,0.4622501635210246,0.6156956717088514,0.6429100507328644,,,1,1,0.19594594594594708,0.5454545454545325,0.38430432829114863,0.5,1,my
8,8,1,5,1,0,1,0.0003349679128796023,0.4358974358974359,0.7647058823529411,0.11764705882352941,0.6666666666666673,0.7561779242174632,0.0,,,1,0,0.47972972972972894,0.8,0.24382207578253698,0.5,1,my
9,9,1,5,2,0,0,0.25370757130129096,0.28205128205128205,0.11764705882352941,0.7647058823529411,0.7952852522702986,0.20263591433278408,0.0,,,1,1,0.7229729729729751,0.2,0.7973640856672161,0.8,1,my
10,10,1,2,1,0,0,0.16785758765621064,0.2564102564102564,0.23529411764705882,0.058823529411764705,0.7952852522702986,0.9341021416803945,0.0,,,1,1,0.4256756756756792,1.0,0.06589785831960572,0.5,1,my
11,11,1,2,2,1,0,0.02419980647819053,0.46153846153846156,0.11764705882352941,0.11764705882352941,0.852347186594598,0.3476112026359136,0.5104177855340402,,,1,0,0.6351351351351403,0.35,0.6523887973640865,0.8,1,my
12,12,1,5,2,1,0,0.009816373258953811,0.3076923076923077,0.11764705882352941,0.17647058823529413,0.7952852522702986,0.7347611202635911,0.0,,,1,0,0.5675675675675702,0.8,0.265238879736409,0.8,1,my
13,13,1,5,2,0,0,0.2825510800405651,0.46153846153846156,0.8235294117647058,0.17647058823529413,0.6537204504606143,0.3772652388797368,0.0,,,1,1,0.682432432432433,0.4,0.6227347611202633,0.8,1,my
14,14,1,2,2,1,1,0.2682976650101901,0.358974358974359,0.4117647058823529,0.8235294117647058,0.5847053462046867,0.5041186161449756,0.5932958789676532,,,1,1,0.5,0.5,0.49588138385502456,0.8,1,my
15,15,1,5,1,0,1,0.29687840014671496,0.1794871794871795,0.11764705882352941,0.058823529411764705,0.915208630644859,0.38550247116968733,0.0,,,1,0,0.6486486486486479,0.4,0.6144975288303127,0.5,1,my
16,16,1,2,2,0,0,0.0815511717376042,0.38461538461538464,0.8235294117647058,0.7647058823529411,0.6537204504606143,0.09390444810543706,0.0,,,1,1,0.493243243243243,0.0,0.906095551894563,0.8,1,my
17,17,1,2,2,0,1,0.3542242909560711,0.28205128205128205,0.11764705882352941,0.6470588235294118,0.7040784727049219,0.052718286655684204,0.0,,,1,0,0.662162162162162,0.0,0.9472817133443159,0.8,1,my
18,18,1,5,1,1,1,0.0001238594325458711,0.48717948717948717,0.35294117647058826,0.8235294117647058,0.6201736729460419,0.30956303443947597,0.7413843764544772,,,1,1,0.7027027027027041,0.32380952380953354,0.6904369655605241,0.5,1,my
19,19,1,2,1,0,1,0.3547080954798835,0.5384615384615384,0.8235294117647058,0.29411764705882354,0.5390716933750936,0.12026359143327833,0.0,,,1,0,0.38513513513513714,0.0,0.8797364085667218,0.5,1,my
20,20,1,2,2,1,1,0.0002107663272051393,0.5384615384615384,0.9411764705882353,0.11764705882352941,0.852347186594598,0.382565718788052,0.39342420959525615,,,1,1,0.4256756756756792,0.3304347826086674,0.6174342812119481,0.8,1,my
21,21,1,5,2,1,1,0.00020494972401929233,0.28205128205128205,0.47058823529411764,0.7647058823529411,0.47140452079103157,0.8616144975288299,0.0,,,1,1,0.7229729729729751,1.0,0.13838550247117018,0.8,1,my
22,22,1,5,2,0,1,0.0003339414534938553,0.3333333333333333,0.11764705882352941,0.7647058823529411,0.7952852522702986,0.2537067545304782,0.0,,,1,0,0.513513513513514,0.2,0.7462932454695219,0.8,1,my
23,23,1,2,2,0,0,0.0003418109754511962,0.6666666666666666,0.8235294117647058,0.7058823529411765,0.5919690451597532,0.8747940691927514,0.0,,,1,1,0.668918918918919,1.0,0.12520593080724873,0.8,1,my
24,24,1,5,2,1,1,0.1390298179608496,0.4358974358974359,0.47058823529411764,0.17647058823529413,0.47140452079103157,0.6190930373710233,0.9489914621963875,,,1,1,0.4729729729729719,0.6315789473683993,0.38090696262897683,0.8,1,my
25,25,1,5,2,1,0,0.00019400082390473946,0.20512820512820512,0.11764705882352941,0.17647058823529413,0.7952852522702986,0.06425041186161388,0.0,,,1,0,0.6148648648648692,0.0,0.9357495881383863,0.8,1,my
26,26,1,5,1,0,1,0.0003869751884237319,0.28205128205128205,0.5294117647058824,0.5294117647058824,0.09245003270420492,0.5189456342668856,0.0,,,1,0,0.7770270270270313,0.6,0.4810543657331145,0.5,1,my
27,27,1,5,1,1,0,0.00019776450831910682,0.3333333333333333,0.8823529411764706,0.6470588235294118,0.6201736729460419,0.1960461285008236,0.15856499343441874,,,1,0,0.6148648648648692,0.1600000000000004,0.8039538714991765,0.5,1,my
28,28,1,2,1,0,0,0.139012368151292,0.41025641025641024,0.17647058823529413,0.7647058823529411,0.7220578379655767,0.4843492586490934,0.0,,,1,1,0.24324324324324617,0.4,0.5156507413509067,0.5,1,my
29,29,1,2,1,0,0,0.08153988068436101,0.28205128205128205,0.47058823529411764,0.7647058823529411,0.47140452079103157,0.05601317957166441,0.0,,,1,1,0.6486486486486479,0.0,0.9439868204283357,0.5,1,my
30,30,1,2,2,1,1,0.0003219660939935698,0.3333333333333333,0.17647058823529413,0.17647058823529413,0.7220578379655767,0.6957715540911578,0.36809246595395445,,,1,1,0.5472972972972991,0.7466666666666659,0.3042284459088423,0.8,1,my
31,31,1,2,1,1,1,0.00034010020980829414,0.358974358974359,0.47058823529411764,0.7058823529411765,0.3811812499312439,0.4732289950576609,0.20829999733290638,,,1,1,0.837837837837838,0.5625,0.5267710049423392,0.5,1,my
32,32,1,2,1,1,1,0.5120913494108814,0.2564102564102564,0.8235294117647058,0.11764705882352941,0.7220578379655767,0.7742998352553538,0.43588989435406794,,,1,1,0.5743243243243272,0.85,0.22570016474464624,0.5,1,my
33,1,2,2,1,0,1,0.0002148721647480982,0.3333333333333333,0.17647058823529413,0.7647058823529411,0.7220578379655767,0.8896210873146613,0.0,,,1,0,0.6081081081081122,1.0,0.1103789126853388,0.5,1,my
34,2,2,5,2,1,1,0.00020187034586206573,0.2564102564102564,0.11764705882352941,0.7647058823529411,0.7952852522702986,0.7182866556836894,0.0,,,1,1,0.6351351351351403,0.8,0.28171334431631073,0.8,1,my
35,3,2,5,1,1,1,0.23946168363974282,0.6666666666666666,0.17647058823529413,0.17647058823529413,0.7220578379655767,0.4219816427394682,0.5714087298142515,,,1,1,0.3783783783783801,0.36428571428573375,0.5780183572605319,0.5,1,my
36,4,2,2,1,1,1,0.0003383894441653921,0.2564102564102564,0.23529411764705882,0.7058823529411765,0.5919690451597532,0.8072487644151556,0.3316624790355406,,,1,1,0.7770270270270313,0.95,0.19275123558484453,0.5,1,my
37,5,2,5,2,1,1,0.19640068594859206,0.23076923076923078,0.4117647058823529,0.7058823529411765,0.41344911529736184,0.37696570316010247,0.9660917830792968,,,1,1,0.5608108108108132,0.36363636363633417,0.6230342968398976,0.8,1,my
38,6,2,2,2,1,1,0.39727570835962284,0.46153846153846156,0.7058823529411765,0.7647058823529411,0.5390716933750936,0.3327841845140031,0.382466602142444,,,1,1,0.831081081081081,0.3899999999999996,0.667215815485997,0.8,1,my
39,7,2,2,1,1,1,0.1104415554554948,0.41025641025641024,0.17647058823529413,0.17647058823529413,0.7220578379655767,0.7750320336811282,0.6192271520170989,,,1,1,0.7027027027027041,0.8888888888888667,0.22496796631887198,0.5,1,my
40,8,2,5,1,0,0,0.00037055183825189563,0.38461538461538464,0.5882352941176471,0.058823529411764705,0.6537204504606143,0.27347611202635846,0.0,,,1,1,0.43243243243243623,0.2,0.7265238879736416,0.5,1,my
41,9,2,2,1,0,1,0.3541654406179561,0.5128205128205128,0.8235294117647058,0.17647058823529413,0.6537204504606143,0.8995057660626025,0.0,,,1,0,0.5675675675675702,1.0,0.10049423393739754,0.5,1,my
42,10,2,2,2,1,1,0.024179277290475733,0.28205128205128205,0.11764705882352941,0.11764705882352941,0.852347186594598,0.4622988214421494,0.7948552521024643,,,1,1,0.9054054054054081,0.5692307692308002,0.5377011785578507,0.8,1,my
43,11,2,2,2,0,1,0.5410378462418587,0.3333333333333333,0.9411764705882353,0.23529411764705882,0.7453559924999296,0.41186161449752867,0.0,,,1,0,0.5405405405405421,0.4,0.5881383855024714,0.8,1,my
44,12,2,2,2,0,0,0.08164629030734934,0.2564102564102564,0.11764705882352941,0.6470588235294118,0.7040784727049219,0.2388797364085666,0.0,,,1,1,0.5743243243243272,0.2,0.7611202635914335,0.8,1,my
45,13,2,5,2,1,0,0.2251305998491788,0.3076923076923077,0.47058823529411764,0.11764705882352941,0.5623515948579827,0.3727935984937615,0.13907069907302255,,,1,0,0.7972972972973024,0.42857142857139935,0.6272064015062386,0.8,1,my
46,14,2,2,1,0,0,0.09588772997822537,0.3333333333333333,0.5294117647058824,0.7058823529411765,0.36980013081681967,0.05930807248764355,0.0,,,1,1,0.6351351351351403,0.0,0.9406919275123565,0.5,1,my
47,15,2,2,1,1,0,0.00021795154290531047,0.48717948717948717,0.8823529411764706,0.17647058823529413,0.7220578379655767,0.2756727073036797,0.18499249234015433,,,1,0,0.6486486486486479,0.26666666666666666,0.7243272926963205,0.5,1,my
48,16,2,5,1,1,1,0.36858035192502236,0.48717948717948717,0.7647058823529411,0.7058823529411765,0.522976360368491,0.14638738526712125,0.41196393739535686,,,1,1,0.5675675675675702,0.08571428571426623,0.8536126147328789,0.5,1,my
49,17,2,2,1,0,0,0.06726970015068433,0.2564102564102564,0.11764705882352941,0.11764705882352941,0.852347186594598,0.5453047775947284,0.0,,,1,1,0.668918918918919,0.6,0.4546952224052717,0.5,1,my
50,18,2,5,2,0,0,0.00019400082390473946,0.358974358974359,0.11764705882352941,0.7058823529411765,0.7453559924999296,0.7858319604612846,0.0,,,1,1,0.35810810810810906,0.8,0.21416803953871547,0.8,1,my
51,19,2,5,2,1,0,0.00018373623004734168,0.28205128205128205,0.058823529411764705,0.47058823529411764,0.7396002616336393,0.6948422253199849,0.18397324220155947,,,1,0,0.9391891891891933,0.861538461538466,0.30515777468001526,0.8,1,my
52,20,2,5,1,0,0,0.28255929171565186,0.41025641025641024,0.4117647058823529,0.17647058823529413,0.4978586625371179,0.41680395387149954,0.0,,,1,1,0.5202702702702711,0.4,0.5831960461285006,0.5,1,my
53,21,2,2,2,1,1,0.36857316670932233,0.2564102564102564,0.11764705882352941,0.7058823529411765,0.7453559924999296,0.8034047226798459,0.14907119849998546,,,1,1,0.3986486486486512,0.8333333333333334,0.19659527732015422,0.8,1,my
54,22,2,5,1,1,0,0.08172909136446568,0.46153846153846156,0.8823529411764706,0.5294117647058824,0.5623515948579827,0.5140032948929151,0.8279333815051342,,,1,0,0.39189189189189416,0.47999999999999926,0.48599670510708504,0.5,1,my
55,23,2,2,2,0,0,0.08197030932011441,0.2564102564102564,0.11764705882352941,0.11764705882352941,0.852347186594598,0.581548599670511,0.0,,,1,1,0.5202702702702711,0.6,0.41845140032948913,0.8,1,my
56,24,2,5,1,0,0,0.1102975089883628,0.23076923076923078,0.35294117647058826,0.7647058823529411,0.5390716933750936,0.6144975288303127,0.0,,,1,1,0.38513513513513714,0.6,0.3855024711696874,0.5,1,my
57,25,2,2,2,1,1,0.1533827995516426,0.38461538461538464,0.9411764705882353,0.5882352941176471,0.6730463973541897,0.5733113673805599,0.0,,,1,1,0.5540540540540562,0.6,0.42668863261944023,0.8,1,my
58,26,2,2,1,1,1,0.5407894430705094,0.5641025641025641,0.8235294117647058,0.7058823529411765,0.5919690451597532,0.6858868753432182,0.4174919363391502,,,1,1,0.317567567567567,0.6666666666666666,0.3141131246567819,0.5,1,my
59,27,2,5,1,1,0,0.03853568041255452,0.358974358974359,0.5294117647058824,0.7647058823529411,0.4622501635210246,0.8373146622734757,0.26967058093574503,,,1,0,0.35810810810810906,0.8625,0.16268533772652438,0.5,1,my
60,28,2,5,2,0,0,0.5551920368649463,0.3076923076923077,0.23529411764705882,0.11764705882352941,0.7220578379655767,0.5057660626029657,0.0,,,1,1,0.831081081081081,0.6,0.49423393739703436,0.8,1,my
61,29,2,5,2,0,0,0.3400146715261542,0.358974358974359,0.35294117647058826,0.11764705882352941,0.6201736729460419,0.3953871499176269,0.0,,,1,1,0.6081081081081122,0.4,0.6046128500823731,0.8,1,my
62,30,2,2,2,0,0,0.00019913312083343133,0.3076923076923077,0.5294117647058824,0.29411764705882354,0.27735009811261474,0.8830313014827009,0.0,,,1,1,0.6351351351351403,1.0,0.11696869851729925,0.8,1,my
63,31,2,5,1,0,0,0.00032709839092226163,0.5128205128205128,0.47058823529411764,0.7058823529411765,0.3811812499312439,0.5963756177924209,0.0,,,1,1,0.4594594594594643,0.6,0.4036243822075792,0.5,1,my
64,32,2,5,2,0,1,0.21071397777647033,0.2564102564102564,1.0,0.4117647058823529,0.7453559924999296,0.7627677100494225,0.0,,,1,0,0.4527027027027073,0.8,0.2372322899505776,0.8,1,my
65,1,3,5,1,1,1,0.13904384623912128,0.4358974358974359,0.35294117647058826,0.29411764705882354,0.3922322702763679,0.7166392092257003,0.12765694770084512,,,1,1,0.6418918918918909,0.8,0.2833607907742997,0.5,1,my
66,2,3,2,2,1,1,0.2968951656500154,0.358974358974359,0.8823529411764706,0.17647058823529413,0.7220578379655767,0.29818780889621127,0.17126976771553462,,,1,1,0.5,0.25,0.7018121911037889,0.8,1,my
67,3,3,2,1,1,1,0.009918677044399155,0.20512820512820512,0.23529411764705882,0.7647058823529411,0.6537204504606143,0.733113673805601,0.0,,,1,1,0.5743243243243272,0.8,0.2668863261943991,0.5,1,my
68,4,3,2,1,1,1,0.5408879831715415,0.41025641025641024,0.8235294117647058,0.11764705882352941,0.7220578379655767,0.7633168588687536,0.5874504568180078,,,1,1,0.675675675675676,0.8666666666666667,0.2366831411312465,0.5,1,my
69,5,3,2,1,1,1,0.06734086800142888,0.41025641025641024,0.11764705882352941,0.17647058823529413,0.7952852522702986,0.6690463115504302,0.1805341867696874,,,1,1,0.23648648648648918,0.6222222222222001,0.3309536884495699,0.5,1,my
70,6,3,2,2,1,1,0.2826773345450118,0.4358974358974359,0.4117647058823529,0.11764705882352941,0.5847053462046867,0.4671811324026705,0.5716499153599115,,,1,1,0.5270270270270281,0.46315789473686664,0.5328188675973295,0.8,1,my
71,7,3,2,2,0,0,0.02412419063677432,0.5897435897435898,0.7647058823529411,0.17647058823529413,0.5919690451597532,0.8764415156507415,0.0,,,1,1,0.662162162162162,1.0,0.12355848434925859,0.8,1,my
72,8,3,5,2,1,1,0.00034591681299415516,0.6410256410256411,0.23529411764705882,0.7058823529411765,0.5919690451597532,0.3625602538287878,0.8732600391157433,,,1,1,0.5675675675675702,0.3481481481481334,0.6374397461712122,0.8,1,my
73,9,3,2,1,0,1,0.46910425679550394,0.38461538461538464,0.17647058823529413,0.7647058823529411,0.7220578379655767,0.09225700164744693,0.0,,,1,0,0.5,0.0,0.9077429983525532,0.5,1,my
74,10,3,5,2,0,0,0.0001987909677048538,0.6666666666666666,0.4117647058823529,0.7058823529411765,0.41344911529736184,0.8533772652388787,0.0,,,1,1,0.7567567567567602,1.0,0.1466227347611213,0.8,1,my
75,11,3,2,2,0,0,0.0002737225028638218,0.23076923076923078,0.11764705882352941,0.11764705882352941,0.852347186594598,0.042833607907742946,0.0,,,1,1,0.7027027027027041,0.0,0.9571663920922572,0.8,1,my
76,12,3,2,2,0,0,0.00982287416839683,0.5384615384615384,0.17647058823529413,0.7058823529411765,0.6666666666666673,0.3228995057660624,0.0,,,1,1,0.22972972972973216,0.2,0.6771004942339377,0.8,1,my
77,13,3,5,2,1,0,0.1963401248448334,0.5641025641025641,0.6470588235294118,0.7058823529411765,0.41344911529736184,0.4203734211971442,0.4984274788681112,,,1,0,0.5337837837837851,0.4083333333333333,0.5796265788028558,0.8,1,my
78,14,3,5,2,0,1,0.0002100820209479842,0.8205128205128205,0.4117647058823529,0.7058823529411765,0.41344911529736184,0.5271828665568364,0.0,,,1,0,0.7432432432432462,0.6,0.4728171334431636,0.8,1,my
79,15,3,2,1,1,1,0.010355264436466961,0.5128205128205128,0.8823529411764706,0.058823529411764705,0.852347186594598,0.4882432230043439,0.7241853660800143,,,1,1,0.4729729729729719,0.4727272727272672,0.5117567769956561,0.5,1,my
80,16,3,2,2,1,1,0.26806294796398383,0.4358974358974359,0.23529411764705882,0.8235294117647058,0.7220578379655767,0.340501170554063,0.3795965848785548,,,1,1,0.6554054054054049,0.34736842105259974,0.6594988294459371,0.8,1,my
81,17,3,5,1,0,0,0.35444908556154847,0.20512820512820512,0.058823529411764705,0.23529411764705882,0.8268982305947237,0.5617792421746285,0.0,,,1,1,0.6013513513513552,0.6,0.43822075782537157,0.5,1,my
82,18,3,5,2,0,1,0.0002070026427907576,0.3333333333333333,0.17647058823529413,0.23529411764705882,0.6666666666666673,0.9373970345963752,0.0,,,1,0,0.41216216216216517,1.0,0.06260296540362488,0.8,1,my
83,19,3,2,2,0,0,0.5839424799532491,0.23076923076923078,0.11764705882352941,0.17647058823529413,0.7952852522702986,0.44151565074135035,0.0,,,1,1,0.4189189189189222,0.4,0.5584843492586498,0.8,1,my
84,20,3,5,1,0,0,0.0002087134084336597,0.4358974358974359,0.6470588235294118,0.7647058823529411,0.4978586625371179,0.27512355848434855,0.0,,,1,1,0.4256756756756792,0.2,0.7248764415156516,0.5,1,my
85,21,3,2,1,0,0,0.22505122032334907,0.5384615384615384,0.8235294117647058,0.17647058823529413,0.6537204504606143,0.9093904448105432,0.0,,,1,1,0.5270270270270281,1.0,0.09060955518945686,0.5,1,my
86,22,3,2,1,0,0,0.18213016326178663,0.5128205128205128,0.8823529411764706,0.7058823529411765,0.6666666666666673,0.07413509060955514,0.0,,,1,1,0.5743243243243272,0.0,0.925864909390445,0.5,1,my
87,23,3,5,2,1,1,0.31128988992249546,0.41025641025641024,0.8823529411764706,0.17647058823529413,0.7220578379655767,0.7232289950576597,0.5573044368153885,,,1,1,0.6148648648648692,0.8,0.27677100494234036,0.8,1,my
88,24,3,5,1,0,0,0.4262499195940148,0.23076923076923078,0.35294117647058826,0.23529411764705882,0.4622501635210246,0.1960461285008236,0.0,,,1,1,0.7500000000000032,0.2,0.8039538714991765,0.5,1,my
89,25,3,2,1,0,0,0.5121707289367111,0.5128205128205128,0.8823529411764706,0.29411764705882354,0.6201736729460419,0.5667215815485994,0.0,,,1,1,0.5810810810810842,0.6,0.4332784184514007,0.5,1,my
90,26,3,2,2,1,0,0.3829203316969285,0.358974358974359,0.8823529411764706,0.23529411764705882,0.6666666666666673,0.14991762767709987,0.0,,,1,0,0.2635135135135172,0.0,0.8500823723229002,0.8,1,my
91,27,3,5,1,1,1,0.18203915052958447,0.3076923076923077,0.7647058823529411,0.17647058823529413,0.5919690451597532,0.6415627206401496,0.7537452276013881,,,1,1,0.4189189189189222,0.6428571428571331,0.35843727935985054,0.5,1,my
92,28,3,5,1,1,1,0.16774741434880755,0.3076923076923077,0.17647058823529413,0.5882352941176471,0.5847053462046867,0.12850082372322946,0.0,,,1,1,0.35135135135135204,0.0,0.8714991762767706,0.5,1,my
93,29,3,5,2,1,1,0.08162747188527743,0.20512820512820512,0.17647058823529413,0.7058823529411765,0.6666666666666673,0.5617792421746285,0.0,,,1,1,0.6013513513513552,0.6,0.43822075782537157,0.8,1,my
94,30,3,5,1,0,0,0.42610689958626913,0.23076923076923078,0.11764705882352941,0.17647058823529413,0.7952852522702986,0.03130148270181219,0.0,,,1,1,0.7500000000000032,0.0,0.9686985172981878,0.5,1,my
95,31,3,5,1,1,1,0.16763826750079117,0.6410256410256411,0.8235294117647058,0.17647058823529413,0.6537204504606143,0.357251815241929,0.753844215746487,,,1,1,0.43918918918919325,0.3037037037037332,0.642748184758071,0.5,1,my
96,32,3,5,2,0,0,0.36856735010613606,0.2564102564102564,0.35294117647058826,0.058823529411764705,0.7040784727049219,0.20263591433278408,0.0,,,1,1,0.7229729729729751,0.2,0.7973640856672161,0.8,1,my
97,1,4,5,1,0,1,0.22516276224326592,0.358974358974359,0.23529411764705882,0.11764705882352941,0.7220578379655767,0.9522240527182868,0.0,,,1,0,0.35135135135135204,1.0,0.04777594728171338,0.5,1,my
98,2,4,5,2,0,0,0.3111865596776639,0.23076923076923078,0.11764705882352941,0.4117647058823529,0.6537204504606143,0.955518945634267,0.0,,,1,1,0.337837837837838,1.0,0.04448105436573312,0.8,1,my
99,3,4,5,2,0,0,0.18196045531001165,0.48717948717948717,0.5294117647058824,0.7058823529411765,0.36980013081681967,0.12355848434925855,0.0,,,1,1,0.3716216216216231,0.0,0.8764415156507416,0.8,1,my
100,4,4,2,1,1,0,0.139021264132635,0.1282051282051282,0.058823529411764705,0.7058823529411765,0.8268982305947237,0.6919275123558482,0.0,,,1,0,0.06756756756757017,0.6,0.30807248764415196,0.5,1,my
101,5,4,5,1,0,1,0.3973763013794241,0.5128205128205128,0.7058823529411765,0.7058823529411765,0.4622501635210246,0.5370675453047775,0.0,,,1,0,0.7027027027027041,0.6,0.4629324546952226,0.5,1,my
102,6,4,5,2,1,1,0.3686084084815654,0.5641025641025641,0.17647058823529413,0.7058823529411765,0.6666666666666673,0.40993959362987403,0.740364840209446,,,1,1,0.8581081081081091,0.49166666666666664,0.5900604063701261,0.8,1,my
103,7,4,5,2,1,0,0.0002891193936499112,0.28205128205128205,0.058823529411764705,0.7647058823529411,0.8721718641894848,0.015460651374983493,0.1438184991013355,,,1,0,0.9189189189189222,0.03076923076919987,0.9845393486250167,0.8,1,my
104,8,4,5,2,1,1,0.09589628380643994,0.4358974358974359,0.6470588235294118,0.17647058823529413,0.4978586625371179,0.6761467094424686,0.8663067178746209,,,1,1,0.5945945945945982,0.7368421052631333,0.3238532905575315,0.8,1,my
105,9,4,5,1,1,1,0.0001963958958047966,0.28205128205128205,0.4117647058823529,0.058823529411764705,0.6730463973541897,0.5703966544164232,0.7230041789194883,,,1,1,0.35810810810810906,0.538461538461534,0.42960334558357693,0.5,1,my
106,10,4,2,1,1,0,0.33994008214412264,0.3333333333333333,0.17647058823529413,0.7058823529411765,0.6666666666666673,0.5387149917627677,0.15856499343441874,,,1,0,0.5608108108108132,0.5600000000000004,0.4612850082372324,0.5,1,my
107,11,4,5,2,0,1,0.33990860405629375,0.28205128205128205,0.8235294117647058,0.11764705882352941,0.7220578379655767,0.7347611202635911,0.0,,,1,0,0.5675675675675702,0.8,0.265238879736409,0.8,1,my
108,12,4,5,1,0,0,0.33989081209360805,0.3333333333333333,0.5882352941176471,0.23529411764705882,0.3811812499312439,0.38879736408566645,0.0,,,1,1,0.6351351351351403,0.4,0.6112026359143337,0.5,1,my
109,13,4,5,2,1,0,0.23992290605706854,0.46153846153846156,0.11764705882352941,0.17647058823529413,0.7952852522702986,0.8270181219110374,0.4907566660404701,,,1,0,0.32432432432432395,0.8399999999999996,0.1729818780889626,0.8,1,my
110,14,4,5,1,1,0,0.0003277826971794311,0.15384615384615385,0.8235294117647058,0.17647058823529413,0.6537204504606143,0.37067545304777577,0.6141195788629911,,,1,0,0.3716216216216231,0.3,0.6293245469522243,0.5,1,my
111,15,4,2,1,0,0,0.00019913312083343133,0.5641025641025641,0.23529411764705882,0.7647058823529411,0.6537204504606143,0.8138385502471166,0.0,,,1,1,0.9189189189189222,1.0,0.1861614497528835,0.5,1,my
112,16,4,2,2,1,1,0.19636783924824805,0.23076923076923078,0.11764705882352941,0.17647058823529413,0.7952852522702986,0.4202486146472969,0.7357535819371414,,,1,1,0.5675675675675702,0.4181818181817997,0.5797513853527032,0.8,1,my
113,17,4,2,2,1,1,0.08181634041225352,0.358974358974359,0.8235294117647058,0.7647058823529411,0.6537204504606143,0.57495881383855,0.6253887679764579,,,1,1,0.5472972972972991,0.6,0.4250411861614501,0.8,1,my
114,18,4,2,1,0,0,0.22527567277569652,0.5641025641025641,0.8235294117647058,0.17647058823529413,0.6537204504606143,0.11037891268533707,0.0,,,1,1,0.4256756756756792,0.0,0.889621087314663,0.5,1,my
115,19,4,5,2,0,1,0.4119089133627219,0.358974358974359,0.4117647058823529,0.17647058823529413,0.4978586625371179,0.44481054365733075,0.0,,,1,0,0.40540540540540815,0.4,0.5551894563426694,0.8,1,my
116,20,4,2,1,1,0,0.06731075852611379,0.38461538461538464,0.5294117647058824,0.11764705882352941,0.5547001962252295,0.5897858319604615,0.0,,,1,0,0.48648648648648596,0.6,0.4102141680395386,0.5,1,my
117,21,4,5,1,1,0,0.5120944287890388,0.3076923076923077,0.8235294117647058,0.5882352941176471,0.4978586625371179,0.4542245234172746,0.5789974915645973,,,1,0,0.2702702702702742,0.37142857142860064,0.5457754765827255,0.5,1,my
118,22,4,2,2,0,0,0.3833055961197103,0.3076923076923077,0.8823529411764706,0.11764705882352941,0.7844645405527358,0.7891268533772654,0.0,,,1,1,0.344594594594595,0.8,0.21087314662273465,0.8,1,my
119,23,4,2,1,1,1,0.05294306435079178,0.23076923076923078,0.7647058823529411,0.7058823529411765,0.522976360368491,0.581548599670511,0.0,,,1,1,0.5202702702702711,0.6,0.41845140032948913,0.5,1,my
120,24,4,2,2,0,0,0.038532601034397325,0.4358974358974359,0.17647058823529413,0.23529411764705882,0.6666666666666673,0.8616144975288299,0.0,,,1,1,0.7229729729729751,1.0,0.13838550247117018,0.8,1,my
121,25,4,2,1,0,0,0.33989149639986493,0.358974358974359,0.17647058823529413,0.7647058823529411,0.7220578379655767,0.6425041186161441,0.0,,,1,1,0.9459459459459503,0.8,0.35749588138385596,0.5,1,my
122,26,4,2,2,1,1,0.05279149051483093,0.2564102564102564,0.23529411764705882,0.11764705882352941,0.7220578379655767,0.6919275123558482,0.0,,,1,1,0.7432432432432462,0.8,0.30807248764415196,0.8,1,my
123,27,4,5,1,1,1,0.32550156227118576,0.5641025641025641,0.8823529411764706,0.7058823529411765,0.6666666666666673,0.380560131795717,0.5532512598464997,,,1,1,0.668918918918919,0.4,0.6194398682042832,0.5,1,my
124,28,4,2,1,0,1,0.18220372618443154,0.38461538461538464,0.9411764705882353,0.23529411764705882,0.7453559924999296,0.6013179571663912,0.0,,,1,0,0.43918918918919325,0.6,0.39868204283360886,0.5,1,my
125,29,4,5,1,0,1,0.3255648605999719,0.38461538461538464,0.47058823529411764,0.7058823529411765,0.3811812499312439,0.7199341021416794,0.0,,,1,0,0.6283783783783833,0.8,0.2800658978583206,0.5,1,my
126,30,4,2,2,0,0,0.3399630064037378,0.4358974358974359,0.8235294117647058,0.17647058823529413,0.6537204504606143,0.108731466227347,0.0,,,1,1,0.43243243243243623,0.0,0.891268533772653,0.8,1,my
127,31,4,2,2,1,0,0.12477606077734464,0.38461538461538464,0.8235294117647058,0.17647058823529413,0.6537204504606143,0.8389378815776722,0.1271867547672921,,,1,0,0.7364864864864892,0.9764705882352662,0.16106211842232782,0.8,1,my
128,32,4,2,2,0,0,0.11030332559154864,0.358974358974359,0.8823529411764706,0.11764705882352941,0.7844645405527358,0.48929159802306393,0.0,,,1,1,0.8986486486486511,0.6,0.5107084019769361,0.8,1,my
129,1,5,2,1,0,0,0.00021521431787667578,0.358974358974359,0.11764705882352941,0.7058823529411765,0.7453559924999296,0.9028006589785826,0.0,,,1,1,0.5540540540540562,1.0,0.09719934102141732,0.5,1,my
130,2,5,5,2,0,0,0.12473397594252933,0.3076923076923077,0.4117647058823529,0.6470588235294118,0.3333333333333327,0.24711696869851715,0.0,,,1,1,0.5405405405405421,0.2,0.752883031301483,0.8,1,my
131,3,5,5,2,1,0,0.2538143230774068,0.358974358974359,0.058823529411764705,0.23529411764705882,0.8268982305947237,0.2994233937397028,0.7526619427073482,,,1,0,0.6216216216216263,0.2875,0.7005766062602973,0.8,1,my
132,4,5,5,1,1,1,0.09587507031246799,0.358974358974359,0.9411764705882353,0.11764705882352941,0.852347186594598,0.43657331136737987,0.7910611719568713,,,1,1,0.43918918918919325,0.4,0.5634266886326202,0.5,1,my
133,5,5,5,1,1,0,0.0003356522191367574,0.28205128205128205,0.23529411764705882,0.4117647058823529,0.47140452079103157,0.562032695475858,0.335887649103853,,,1,0,0.23648648648648918,0.4923076923076659,0.43796730452414206,0.5,1,my
134,6,5,2,2,0,0,0.3255426206466151,0.28205128205128205,0.17647058823529413,0.11764705882352941,0.7844645405527358,0.7281713344316301,0.0,,,1,1,0.5945945945945982,0.8,0.27182866556837004,0.8,1,my
135,7,5,5,1,1,1,0.00020666048966218006,0.20512820512820512,0.4117647058823529,0.17647058823529413,0.4978586625371179,0.41021416803953853,0.0,,,1,1,0.5472972972972991,0.4,0.5897858319604616,0.5,1,my
136,8,5,2,1,0,1,0.1822506011630471,0.6153846153846154,0.29411764705882354,0.7058823529411765,0.522976360368491,0.5024711696869854,0.0,,,1,0,0.8445945945945951,0.6,0.49752883031301476,0.5,1,my
137,9,5,5,2,0,0,0.4690269301884448,0.5641025641025641,0.8823529411764706,0.7058823529411765,0.6666666666666673,0.38879736408566645,0.0,,,1,1,0.6351351351351403,0.4,0.6112026359143337,0.8,1,my
138,10,5,2,1,0,0,0.038664329988900535,0.5128205128205128,0.8823529411764706,0.7058823529411765,0.6666666666666673,0.8434925864909381,0.0,,,1,1,0.7972972972973024,1.0,0.156507413509062,0.5,1,my
139,11,5,5,1,0,0,0.2400840601806298,0.3333333333333333,0.47058823529411764,0.7058823529411765,0.3811812499312439,0.5864909390444814,0.0,,,1,1,0.5,0.6,0.41350906095551876,0.5,1,my
140,12,5,2,2,1,1,0.3686542570007957,0.3333333333333333,0.47058823529411764,0.4117647058823529,0.13074409009212287,0.5052169137836346,0.1868706368604628,,,1,1,0.6081081081081122,0.5333333333333333,0.49478308621636546,0.8,1,my
141,13,5,2,2,1,1,0.4836033377722009,0.4358974358974359,0.47058823529411764,0.058823529411764705,0.6537204504606143,0.6405098413248943,0.29286512340465337,,,1,1,0.38513513513513714,0.6315789473683993,0.3594901586751058,0.8,1,my
142,14,5,2,1,1,0,0.45467600151642307,0.3333333333333333,0.8235294117647058,0.7058823529411765,0.5919690451597532,0.7287204832509595,0.17530019603571106,,,1,0,0.41216216216216517,0.7466666666666659,0.27127951674904055,0.5,1,my
143,15,5,5,1,0,0,0.32550190442431426,0.28205128205128205,0.17647058823529413,0.29411764705882354,0.6201736729460419,0.22405271828665502,0.0,,,1,1,0.6351351351351403,0.2,0.775947281713345,0.5,1,my
144,16,5,2,2,0,0,0.13917044289669583,0.7692307692307693,0.5882352941176471,0.7058823529411765,0.3811812499312439,0.840197693574959,0.0,,,1,1,0.81081081081081,1.0,0.15980230642504112,0.8,1,my
145,17,5,2,2,0,0,0.36860977709408055,0.41025641025641024,0.8235294117647058,0.7647058823529411,0.6537204504606143,0.7215815485996696,0.0,,,1,1,0.6216216216216263,0.8,0.27841845140033045,0.8,1,my
146,18,5,2,1,1,0,0.11038544234240781,0.23076923076923078,0.8235294117647058,0.17647058823529413,0.6537204504606143,0.7232289950576597,0.0,,,1,0,0.6148648648648692,0.8,0.27677100494234036,0.5,1,my
147,19,5,2,2,0,0,0.08157101661906185,0.28205128205128205,0.7058823529411765,0.11764705882352941,0.6201736729460419,0.07907742998352547,0.0,,,1,1,0.5540540540540562,0.0,0.9209225700164746,0.8,1,my
148,20,5,2,1,1,0,0.8567504075043766,0.38461538461538464,0.11764705882352941,0.17647058823529413,0.7952852522702986,0.4392867525923054,0.2786522184076949,,,1,0,0.5472972972972991,0.4352941176470665,0.5607132474076947,0.5,1,my
149,21,5,5,1,0,0,0.11024960755036153,0.23076923076923078,0.5294117647058824,0.4117647058823529,0.09245003270420492,0.39868204283360714,0.0,,,1,1,0.5945945945945982,0.4,0.6013179571663929,0.5,1,my
150,22,5,5,2,0,0,0.009819794790239601,0.3076923076923077,0.11764705882352941,0.7058823529411765,0.7453559924999296,0.7248764415156498,0.0,,,1,1,0.6081081081081122,0.8,0.2751235584843503,0.8,1,my
151,23,5,5,2,0,0,0.009980264607543527,0.5128205128205128,0.8235294117647058,0.23529411764705882,0.5919690451597532,0.6095551894563424,0.0,,,1,1,0.40540540540540815,0.6,0.3904448105436577,0.8,1,my
152,24,5,2,1,0,0,0.469106651867403,0.28205128205128205,0.23529411764705882,0.4117647058823529,0.47140452079103157,0.023064250411861015,0.0,,,1,1,0.7837837837837883,0.0,0.9769357495881391,0.5,1,my
153,25,5,5,1,0,0,0.00019365867077614755,0.23076923076923078,0.4117647058823529,0.8823529411764706,0.6730463973541897,0.07413509060955514,0.0,,,1,1,0.5743243243243272,0.0,0.925864909390445,0.5,1,my
154,26,5,2,1,1,0,0.0001717608705470418,0.3333333333333333,0.8823529411764706,0.23529411764705882,0.6666666666666673,0.648544755628775,0.24507854264192916,,,1,0,0.831081081081081,0.773333333333333,0.351455244371225,0.5,1,my
155,27,5,5,2,1,1,0.0002165829303910003,0.20512820512820512,0.7647058823529411,0.5882352941176471,0.41344911529736184,0.3245469522240526,0.7910611719568713,,,1,1,0.493243243243243,0.27999999999999925,0.6754530477759475,0.8,1,my
156,28,5,5,2,1,1,0.3830058699790743,0.46153846153846156,0.7647058823529411,0.7058823529411765,0.522976360368491,0.45634266886326197,0.4527111313200197,,,1,1,0.5945945945945982,0.47000000000000075,0.5436573311367381,0.8,1,my
157,29,5,2,2,1,1,0.00020802910217650457,0.28205128205128205,0.23529411764705882,0.17647058823529413,0.6537204504606143,0.36231149410721125,0.16794382455192586,,,1,1,0.5878378378378412,0.3538461538461339,0.6376885058927888,0.8,1,my
158,30,5,2,2,1,1,0.024313059163750407,0.2564102564102564,0.4117647058823529,0.8235294117647058,0.5847053462046867,0.39758374519494816,0.4268749491621905,,,1,1,0.48648648648648596,0.36666666666666664,0.6024162548050519,0.8,1,my
159,31,5,5,2,1,1,8.930196655932505e-05,0.38461538461538464,0.17647058823529413,0.47058823529411764,0.5547001962252295,0.7662564201957541,0.2522448234957309,,,1,1,0.3986486486486512,0.7882352941176672,0.23374357980424593,0.8,1,my
160,32,5,5,1,1,1,0.2969013244063301,0.23076923076923078,0.29411764705882354,0.23529411764705882,0.522976360368491,0.7166392092257003,0.0,,,1,1,0.6418918918918909,0.8,0.2833607907742997,0.5,1,my
1,1,1,2,2,0,0,0.4549209831564865,0.38461538461538464,0.17647058823529413,0.17647058823529413,0.7220578379655767,0.10543657331136674,0.0,,,1,1,0.4459459459459503,0.0,0.8945634266886333,0.8,2,my
2,2,1,2,1,0,1,0.0003110171938790169,0.46153846153846156,0.8235294117647058,0.11764705882352941,0.7220578379655767,0.4332784184513996,0.0,,,1,0,0.4527027027027073,0.4,0.5667215815486005,0.3,2,my
3,3,1,2,1,0,0,0.00014336216087491998,0.6410256410256411,0.8235294117647058,0.6470588235294118,0.5390716933750936,0.8154859967051067,0.0,,,1,1,0.9121621621621652,1.0,0.1845140032948934,0.3,2,my
4,4,1,5,1,0,0,0.15347449659010168,0.20512820512820512,0.17647058823529413,0.23529411764705882,0.6666666666666673,0.5568369028006582,0.0,,,1,1,0.6216216216216263,0.6,0.44316309719934194,0.3,2,my
5,5,1,2,1,1,1,0.21075366753938593,0.28205128205128205,0.8235294117647058,0.11764705882352941,0.7220578379655767,0.5436573311367382,0.0,,,1,1,0.675675675675676,0.6,0.45634266886326186,0.3,2,my
6,6,1,2,1,0,0,9.477641661659416e-05,0.41025641025641024,0.17647058823529413,0.17647058823529413,0.7220578379655767,0.39868204283360714,0.0,,,1,1,0.5945945945945982,0.4,0.6013179571663929,0.3,2,my
7,7,1,2,1,1,1,0.23955030130004457,0.1794871794871795,0.11764705882352941,0.8235294117647058,0.852347186594598,0.9176276771004943,0.0,,,1,1,0.493243243243243,1.0,0.08237232289950573,0.3,2,my
8,8,1,5,2,0,0,0.18219038221241687,0.20512820512820512,0.11764705882352941,0.5294117647058824,0.6537204504606143,0.6161449752883028,0.0,,,1,1,0.3783783783783801,0.6,0.3838550247116973,0.8,2,my
9,9,1,5,2,0,1,0.00014233570148918735,0.3076923076923077,0.8235294117647058,0.17647058823529413,0.6537204504606143,0.4481054365733111,0.0,,,1,0,0.39189189189189416,0.4,0.551894563426689,0.8,2,my
10,10,1,2,2,1,1,0.4403914505513461,0.5897435897435898,0.7058823529411765,0.29411764705882354,0.3922322702763679,0.5617792421746302,0.5492216714992632,,,1,1,0.493243243243243,0.5680000000000007,0.4382207578253699,0.8,2,my
11,11,1,5,2,0,1,0.2681050327987985,0.41025641025641024,0.5294117647058824,0.7058823529411765,0.36980013081681967,0.733113673805601,0.0,,,1,0,0.5743243243243272,0.8,0.2668863261943991,0.8,2,my
12,12,1,2,2,0,0,0.21071397777647033,0.38461538461538464,0.8823529411764706,0.7058823529411765,0.6666666666666673,0.8780889621087316,0.0,,,1,1,0.6554054054054049,1.0,0.12191103789126852,0.8,2,my
13,13,1,2,2,1,1,0.22513025769605036,0.3333333333333333,0.9411764705882353,0.058823529411764705,0.915208630644859,0.56781987918726,0.17530019603571106,,,1,1,0.7567567567567602,0.6533333333333341,0.43218012081274004,0.8,2,my
14,14,1,2,1,1,1,0.00032572977840795146,0.3333333333333333,0.11764705882352941,0.7058823529411765,0.7453559924999296,0.6902800658978591,0.19420166249104495,,,1,1,0.47972972972972894,0.7200000000000008,0.309719934102141,0.3,2,my
15,15,1,5,1,1,0,0.06744282963374557,0.28205128205128205,0.7647058823529411,0.7647058823529411,0.5919690451597532,0.8185274363198574,0.4314554973040052,,,1,0,0.5878378378378412,0.9076923076923341,0.1814725636801427,0.3,2,my
16,16,1,5,1,1,0,0.33989799730930803,0.28205128205128205,0.5294117647058824,0.29411764705882354,0.27735009811261474,0.6608794829552654,0.7756992985103197,,,1,0,0.506756756756757,0.692307692307666,0.33912051704473467,0.3,2,my
17,17,1,5,2,1,0,0.2824638309927786,0.4358974358974359,0.35294117647058826,0.4117647058823529,0.29235267310234336,0.19864735975028106,0.22303943304706764,,,1,0,0.27702702702703125,0.06315789473686664,0.8013526402497191,0.8,2,my
18,18,1,2,1,0,0,0.5983803155199291,0.3076923076923077,0.23529411764705882,0.11764705882352941,0.7220578379655767,0.2421746293245468,0.0,,,1,1,0.5608108108108132,0.2,0.7578253706754533,0.3,2,my
19,19,1,5,1,1,0,0.0003332571472367002,0.5384615384615384,0.5294117647058824,0.17647058823529413,0.4622501635210246,0.35620657546021073,0.4561972621892693,,,1,0,0.5337837837837851,0.3304347826086674,0.6437934245397894,0.3,2,my
20,20,1,5,2,1,0,0.29705016101726206,0.46153846153846156,0.47058823529411764,0.17647058823529413,0.47140452079103157,0.08566721581548593,0.08563488385776744,,,1,0,0.5608108108108132,0.010000000000000378,0.9143327841845141,0.8,2,my
21,21,1,2,1,1,1,0.2825507378874367,0.5384615384615384,0.8823529411764706,0.35294117647058826,0.5847053462046867,0.767495165102787,0.49985505145368775,,,1,1,0.8445945945945951,0.9217391304348003,0.232504834897213,0.3,2,my
22,22,1,2,2,1,1,0.4404215600266612,0.3076923076923077,0.4117647058823529,0.7058823529411765,0.41344911529736184,0.6940456578018355,0.1904303974257688,,,1,1,0.493243243243243,0.7285714285713993,0.30595434219816464,0.8,2,my
23,23,1,5,2,1,0,0.4115924217187855,0.3333333333333333,0.35294117647058826,0.17647058823529413,0.5390716933750936,0.639758374519495,0.35060039207142213,,,1,0,0.6418918918918909,0.7066666666666663,0.3602416254805051,0.8,2,my
24,24,1,5,2,1,0,0.009865301156340715,0.48717948717948717,1.0,0.17647058823529413,0.8721718641894848,0.2759865066290108,0.11519479706063679,,,1,0,0.48648648648648596,0.21904761904759956,0.7240134933709893,0.8,2,my
25,25,1,5,1,0,0,0.2825397889873225,0.41025641025641024,0.23529411764705882,0.7058823529411765,0.5919690451597532,0.41680395387149954,0.0,,,1,1,0.5202702702702711,0.4,0.5831960461285006,0.3,2,my
26,26,1,2,2,1,0,0.009962814797985959,0.6923076923076923,0.17647058823529413,0.7058823529411765,0.6666666666666673,0.7532238822927899,0.5580284318079826,,,1,0,0.3986486486486512,0.7724137931034666,0.2467761177072102,0.8,2,my
27,27,1,5,1,1,0,0.06729741455409925,0.28205128205128205,0.5294117647058824,0.35294117647058826,0.18490006540840984,0.3479913825877571,0.8897325056577011,,,1,0,0.5945945945945982,0.33846153846153393,0.652008617412243,0.3,2,my
28,28,1,5,2,0,0,0.0004280335638532947,0.48717948717948717,0.8235294117647058,0.7647058823529411,0.6537204504606143,0.42339373970346,0.0,,,1,1,0.493243243243243,0.4,0.5766062602965402,0.8,2,my
29,29,1,5,1,0,1,0.03843063940208064,0.38461538461538464,0.9411764705882353,0.23529411764705882,0.7453559924999296,0.6013179571663912,0.0,,,1,0,0.43918918918919325,0.6,0.39868204283360886,0.3,2,my
30,30,1,2,2,0,0,0.15353539984698877,0.358974358974359,0.11764705882352941,0.7058823529411765,0.7453559924999296,0.7940691927512358,0.0,,,1,1,0.32432432432432395,0.8,0.20593080724876434,0.8,2,my
31,31,1,5,1,0,0,0.13888611364684603,0.5641025641025641,0.8235294117647058,0.7058823529411765,0.5919690451597532,0.5255354200988462,0.0,,,1,1,0.7500000000000032,0.6,0.4744645799011538,0.3,2,my
32,32,1,2,2,0,0,0.1675972091253604,0.4358974358974359,0.35294117647058826,0.7647058823529411,0.5390716933750936,0.6490939044481052,0.0,,,1,1,0.24324324324324617,0.6,0.350906095551895,0.8,2,my
33,1,2,2,1,0,0,0.42605318154508204,0.41025641025641024,0.8823529411764706,0.7058823529411765,0.6666666666666673,0.5700164744645796,0.0,,,1,1,0.5675675675675702,0.6,0.4299835255354205,0.3,2,my
34,2,2,2,2,1,1,0.0002997261406358865,0.41025641025641024,0.8823529411764706,0.11764705882352941,0.7844645405527358,0.7600219659527735,0.5874504568180078,,,1,1,0.68918918918919,0.8666666666666667,0.2399780340472267,0.8,2,my
35,3,2,5,1,1,1,0.00021624077726242275,0.5128205128205128,0.8823529411764706,0.7647058823529411,0.7220578379655767,0.3949378463381755,0.7766431633476237,,,1,1,0.4256756756756792,0.3454545454545325,0.6050621536618246,0.3,2,my
36,4,2,5,2,1,0,0.1247230270424147,0.358974358974359,0.4117647058823529,0.23529411764705882,0.41344911529736184,0.24011532125205917,0.7719024117939607,,,1,0,0.5270270270270281,0.1875,0.7598846787479409,0.8,2,my
37,5,2,2,2,0,0,0.0003390737504225615,0.2564102564102564,0.11764705882352941,0.17647058823529413,0.7952852522702986,0.57495881383855,0.0,,,1,1,0.5472972972972991,0.6,0.4250411861614501,0.8,2,my
38,6,2,2,1,0,0,0.23960093996307433,0.23076923076923078,0.11764705882352941,0.7647058823529411,0.7952852522702986,0.30807248764415085,0.0,,,1,1,0.2905405405405453,0.2,0.6919275123558492,0.3,2,my
39,7,2,5,1,0,0,0.1390342659515211,0.2564102564102564,0.47058823529411764,0.6470588235294118,0.29235267310234336,0.43492586490938967,0.0,,,1,1,0.4459459459459503,0.4,0.5650741350906104,0.3,2,my
40,8,2,2,2,1,1,0.38326043190673686,0.5641025641025641,0.8235294117647058,0.17647058823529413,0.6537204504606143,0.48654585392641314,0.3688341732309998,,,1,1,0.4594594594594643,0.4666666666666667,0.513454146073587,0.8,2,my
41,9,2,5,1,1,1,0.31122248575616523,0.5641025641025641,0.47058823529411764,0.11764705882352941,0.5623515948579827,0.7501372872048322,0.4324964047210318,,,1,1,0.7297297297297322,0.8666666666666667,0.24986271279516795,0.3,2,my
42,10,2,5,2,0,1,0.1391112504054515,0.38461538461538464,0.4117647058823529,0.17647058823529413,0.4978586625371179,0.2355848434925858,0.0,,,1,0,0.5878378378378412,0.2,0.7644151565074142,0.8,2,my
43,11,2,5,2,0,0,0.21088060635008804,0.28205128205128205,0.5882352941176471,0.7058823529411765,0.3811812499312439,0.9077429983525532,0.0,,,1,1,0.5337837837837851,1.0,0.09225700164744699,0.8,2,my
44,12,2,2,1,1,0,0.4404591968708047,0.4358974358974359,0.17647058823529413,0.23529411764705882,0.6666666666666673,0.8754877308592726,0.4431853510221469,,,1,0,0.4527027027027073,0.9368421052631334,0.12451226914072756,0.3,2,my
45,13,2,2,2,1,1,0.13889569393444634,0.3076923076923077,0.8823529411764706,0.6470588235294118,0.6201736729460419,0.1197928924452811,0.5117663157191596,,,1,1,0.6283783783783833,0.07142857142860067,0.880207107554719,0.8,2,my
46,14,2,2,2,0,0,0.3399116834344511,0.358974358974359,0.17647058823529413,0.7058823529411765,0.6666666666666673,0.9456342668863257,0.0,,,1,1,0.3783783783783801,1.0,0.05436573311367438,0.8,2,my
47,15,2,5,2,1,1,0.00026448436839217104,0.1794871794871795,0.23529411764705882,0.8823529411764706,0.7952852522702986,0.7369577155409107,0.5066228051190228,,,1,1,0.7837837837837883,0.8666666666666667,0.26304228445908945,0.8,2,my
48,16,2,2,2,0,0,0.024194332028133144,0.3333333333333333,0.11764705882352941,0.7647058823529411,0.7952852522702986,0.5930807248764418,0.0,,,1,1,0.4729729729729719,0.6,0.4069192751235583,0.8,2,my
49,17,2,5,2,1,1,0.13898773312603427,0.3076923076923077,0.8823529411764706,0.7058823529411765,0.6666666666666673,0.6641562720640151,0.7617215897030752,,,1,1,0.5675675675675702,0.7142857142857337,0.33584372793598505,0.8,2,my
50,18,2,5,2,1,1,0.08171198370803665,0.23076923076923078,0.47058823529411764,0.23529411764705882,0.3811812499312439,0.3589935599820273,0.7745966692414837,,,1,1,0.695945945945947,0.38181818181820026,0.6410064400179728,0.8,2,my
51,19,2,2,2,0,0,0.4834757146552404,0.28205128205128205,0.8823529411764706,0.11764705882352941,0.7844645405527358,0.7133443163097202,0.0,,,1,1,0.6554054054054049,0.8,0.28665568369028,0.8,2,my
52,20,2,2,2,1,1,0.2825161804214505,0.1794871794871795,0.8823529411764706,0.17647058823529413,0.7220578379655767,0.7001647446457987,0.0,,,1,1,0.7094594594594611,0.8,0.2998352553542014,0.8,2,my
53,21,2,5,2,0,0,0.15340469735187243,0.358974358974359,0.8235294117647058,0.11764705882352941,0.7220578379655767,0.3953871499176269,0.0,,,1,1,0.6081081081081122,0.4,0.6046128500823731,0.8,2,my
54,22,2,2,1,0,0,0.4690252194228013,0.38461538461538464,0.17647058823529413,0.7058823529411765,0.6666666666666673,0.5963756177924209,0.0,,,1,1,0.4594594594594643,0.6,0.4036243822075792,0.3,2,my
55,23,2,5,1,0,0,0.000188526373847456,0.1794871794871795,0.5882352941176471,0.17647058823529413,0.47140452079103157,0.7248764415156498,0.0,,,1,1,0.6081081081081122,0.8,0.2751235584843503,0.3,2,my
56,24,2,2,1,1,1,0.32602197717975495,0.41025641025641024,0.11764705882352941,0.17647058823529413,0.7952852522702986,0.6906461651107443,0.580886558546316,,,1,1,0.8986486486486511,0.8444444444444665,0.30935383488925583,0.3,2,my
57,25,2,5,2,0,1,0.25380234771790733,0.20512820512820512,0.058823529411764705,0.6470588235294118,0.7898934256794559,0.5881383855024714,0.0,,,1,0,0.493243243243243,0.6,0.41186161449752867,0.8,2,my
58,26,2,2,1,0,0,0.28256305540006604,0.5641025641025641,0.7647058823529411,0.7647058823529411,0.5919690451597532,0.8830313014827009,0.0,,,1,1,0.6351351351351403,1.0,0.11696869851729925,0.3,2,my
59,27,2,5,1,0,1,0.12458719225036854,0.6410256410256411,0.5294117647058824,0.6470588235294118,0.27735009811261474,0.2800658978583195,0.0,,,1,0,0.40540540540540815,0.2,0.7199341021416806,0.3,2,my
60,28,2,5,1,0,1,0.09595718706332718,0.23076923076923078,0.47058823529411764,0.6470588235294118,0.29235267310234336,0.14662273476111962,0.0,,,1,0,0.9527027027027073,0.2,0.8533772652388805,0.3,2,my
61,29,2,5,1,1,1,0.23983702562179568,0.358974358974359,0.5294117647058824,0.7058823529411765,0.36980013081681967,0.2660626029654035,0.5744562646538031,,,1,1,0.5472972972972991,0.225,0.7339373970345966,0.3,2,my
62,30,2,5,1,1,1,0.00020118603960491064,0.3076923076923077,0.47058823529411764,0.7647058823529411,0.47140452079103157,0.1847493527888923,0.4681817373564879,,,1,1,0.506756756756757,0.11428571428573378,0.8152506472111078,0.3,2,my
63,31,2,2,1,1,1,0.0960112472576427,0.3076923076923077,0.23529411764705882,0.11764705882352941,0.7220578379655767,0.3598493763238405,0.7867026750311072,,,1,1,0.5608108108108132,0.3428571428571331,0.6401506236761596,0.3,2,my
64,32,2,2,1,1,1,0.2537554727392918,0.3076923076923077,0.8235294117647058,0.7058823529411765,0.5919690451597532,0.4377500588373744,0.48922454899632684,,,1,1,0.675675675675676,0.4714285714286007,0.5622499411626257,0.3,2,my
65,1,3,2,1,1,0,0.368798987774185,0.3333333333333333,0.8235294117647058,0.11764705882352941,0.7220578379655767,0.2959912136188917,0.17530019603571106,,,1,0,0.5202702702702711,0.2533333333333341,0.7040087863811084,0.3,2,my
66,2,3,2,1,0,1,0.11024515955969001,0.3333333333333333,0.11764705882352941,0.17647058823529413,0.7952852522702986,0.07578253706754527,0.0,,,1,0,0.5675675675675702,0.0,0.9242174629324548,0.3,2,my
67,3,3,2,2,1,1,0.2969078253157732,0.3076923076923077,0.17647058823529413,0.11764705882352941,0.7844645405527358,0.6493292539421035,0.19667566875777717,,,1,1,0.6283783783783833,0.7142857142857337,0.3506707460578966,0.8,2,my
68,4,3,5,2,1,1,0.167813449902624,0.20512820512820512,0.23529411764705882,0.7058823529411765,0.5919690451597532,0.507413509060956,0.9888264649460882,,,1,1,0.824324324324324,0.6,0.4925864909390442,0.8,2,my
69,5,3,2,2,1,0,0.08165210691053516,0.5897435897435898,0.23529411764705882,0.11764705882352941,0.7220578379655767,0.6556836902800656,0.3509985754956845,,,1,0,0.513513513513514,0.6879999999999995,0.3443163097199345,0.8,2,my
70,6,3,2,1,0,0,0.009772235505367023,0.2564102564102564,0.11764705882352941,0.11764705882352941,0.852347186594598,0.5617792421746285,0.0,,,1,1,0.6013513513513552,0.6,0.43822075782537157,0.3,2,my
71,7,3,5,1,0,0,0.33986001831203605,0.3333333333333333,0.17647058823529413,0.7647058823529411,0.7220578379655767,0.7215815485996696,0.0,,,1,1,0.6216216216216263,0.8,0.27841845140033045,0.3,2,my
72,8,3,5,1,1,0,0.2107410078736281,0.48717948717948717,0.47058823529411764,0.17647058823529413,0.47140452079103157,0.6925551110065115,0.37560533153746006,,,1,0,0.4189189189189222,0.704761904761934,0.30744488899348865,0.3,2,my
73,9,3,5,2,1,0,0.0002679058996779605,0.48717948717948717,0.5294117647058824,0.0,0.7396002616336393,0.6094767396250085,0.3342843576149383,,,1,0,0.27702702702703125,0.5619047619047327,0.39052326037499163,0.8,2,my
74,10,3,5,1,1,1,0.3829131464812286,0.48717948717948717,0.8235294117647058,0.7058823529411765,0.5919690451597532,0.3536518396485446,0.36998498468030994,,,1,1,0.5540540540540562,0.3333333333333333,0.6463481603514555,0.3,2,my
75,11,3,5,1,1,1,0.33987815242785024,0.28205128205128205,0.47058823529411764,0.6470588235294118,0.29235267310234336,0.14827018121910973,0.0,,,1,1,0.2702702702702742,0.0,0.8517298187808903,0.3,2,my
76,12,3,2,1,0,0,0.3113285532260257,0.6410256410256411,0.8235294117647058,0.7058823529411765,0.5919690451597532,0.3196046128500822,0.0,,,1,1,0.24324324324324617,0.2,0.680395387149918,0.3,2,my
77,13,3,5,2,1,1,0.00020734479591934948,0.28205128205128205,0.5882352941176471,0.7647058823529411,0.47140452079103157,0.8063616778608541,0.3679464844031203,,,1,1,0.5337837837837851,0.876923076923066,0.19363832213914597,0.8,2,my
78,14,3,2,1,0,0,0.1678418486122955,0.38461538461538464,0.4117647058823529,0.11764705882352941,0.5847053462046867,0.8599670510708398,0.0,,,1,1,0.7297297297297322,1.0,0.14003294892916032,0.3,2,my
79,15,3,2,2,1,1,0.3978084407808214,0.5128205128205128,0.17647058823529413,0.11764705882352941,0.7844645405527358,0.6601767260745846,0.17457431218879327,,,1,1,0.68918918918919,0.7454545454545325,0.33982327392541556,0.8,2,my
80,16,3,2,2,0,0,0.4977914015550178,0.358974358974359,0.8235294117647058,0.11764705882352941,0.7220578379655767,0.11367380560131787,0.0,,,1,1,0.41216216216216517,0.0,0.8863261943986823,0.8,2,my
81,17,3,2,1,1,1,0.1532517549033964,0.5128205128205128,0.17647058823529413,0.23529411764705882,0.6666666666666673,0.5602815635764572,0.1126872339638023,,,1,1,0.668918918918919,0.6181818181817997,0.43971843642354297,0.3,2,my
82,18,3,5,1,0,0,0.4260593403013967,0.46153846153846156,0.17647058823529413,0.7058823529411765,0.6666666666666673,0.7677100494233928,0.0,,,1,1,0.43243243243243623,0.8,0.23228995057660726,0.3,2,my
83,19,3,2,2,0,0,0.33981177472090535,0.2564102564102564,0.47058823529411764,0.17647058823529413,0.47140452079103157,0.911037891268534,0.0,,,1,1,0.5202702702702711,1.0,0.08896210873146619,0.8,2,my
84,20,3,5,2,0,0,0.39725449486564995,0.38461538461538464,0.11764705882352941,0.6470588235294118,0.7040784727049219,0.42998352553541935,0.0,,,1,1,0.46621621621622134,0.4,0.5700164744645808,0.8,2,my
85,21,3,2,2,0,0,0.3685882214469792,0.5641025641025641,0.7647058823529411,0.7647058823529411,0.5919690451597532,0.7051070840197696,0.0,,,1,1,0.68918918918919,0.8,0.29489291598023054,0.8,2,my
86,22,3,2,2,1,1,0.11029135023204827,0.23076923076923078,0.17647058823529413,0.11764705882352941,0.7844645405527358,0.7823872996854873,0.5796550698475781,,,1,1,0.31081081081080997,0.7818181818182003,0.2176127003145128,0.8,2,my
87,23,3,5,2,1,1,0.0003469432723798878,0.28205128205128205,0.47058823529411764,0.7647058823529411,0.47140452079103157,0.24889114180712124,0.5221585704070864,,,1,1,0.68918918918919,0.24615384615386612,0.7511088581928788,0.8,2,my
88,24,3,5,1,0,1,0.16763005582570445,0.3333333333333333,0.5294117647058824,0.058823529411764705,0.6471502289294344,0.8072487644151556,0.0,,,1,0,0.2702702702702742,0.8,0.19275123558484453,0.3,2,my
89,25,3,5,2,0,0,0.00018305192379018656,0.28205128205128205,0.5882352941176471,0.8823529411764706,0.6537204504606143,0.6095551894563424,0.0,,,1,1,0.40540540540540815,0.6,0.3904448105436577,0.8,2,my
90,26,3,2,1,1,1,0.00021624077726242275,0.41025641025641024,0.8823529411764706,0.11764705882352941,0.7844645405527358,0.29635731283177635,0.6586114660259323,,,1,1,0.6013513513513552,0.2777777777777999,0.7036426871682238,0.3,2,my
91,27,3,5,1,1,1,0.0002070026427907576,0.15384615384615385,0.6470588235294118,0.17647058823529413,0.4978586625371179,0.05930807248764355,0.0,,,1,1,0.6351351351351403,0.0,0.9406919275123565,0.3,2,my
92,28,3,2,1,1,0,0.12461695957255493,0.41025641025641024,0.7058823529411765,0.7647058823529411,0.5390716933750936,0.20867655134541505,0.5874504568180078,,,1,0,0.4729729729729719,0.13333333333333333,0.791323448654585,0.3,2,my
93,29,3,2,2,0,0,0.00033667867852250433,0.20512820512820512,0.8823529411764706,0.11764705882352941,0.7844645405527358,0.5436573311367382,0.0,,,1,1,0.675675675675676,0.6,0.45634266886326186,0.8,2,my
94,30,3,5,2,0,0,0.0002867243217498543,0.2564102564102564,0.7058823529411765,0.058823529411764705,0.7040784727049219,0.7347611202635911,0.0,,,1,1,0.5675675675675702,0.8,0.265238879736409,0.8,2,my
95,31,3,5,1,0,1,0.13896070302887636,0.3076923076923077,0.11764705882352941,0.23529411764705882,0.7453559924999296,0.7742998352553538,0.0,,,1,0,0.40540540540540815,0.8,0.22570016474464624,0.3,2,my
96,32,3,5,2,0,1,0.03887030617230564,0.3333333333333333,0.23529411764705882,0.11764705882352941,0.7220578379655767,0.23064250411861548,0.0,,,1,0,0.6081081081081122,0.2,0.7693574958813846,0.8,2,my
97,1,4,2,2,1,1,0.153397512136171,0.28205128205128205,0.8235294117647058,0.17647058823529413,0.6537204504606143,0.38410847801292514,0.335887649103853,,,1,1,0.2905405405405453,0.2923076923076659,0.615891521987075,0.8,2,my
98,2,4,2,2,0,0,0.38286695580887126,0.2564102564102564,0.9411764705882353,0.11764705882352941,0.852347186594598,0.26523887973640786,0.0,,,1,1,0.46621621621622134,0.2,0.7347611202635922,0.8,2,my
99,3,4,5,2,0,1,0.4116163724377859,0.358974358974359,0.4117647058823529,0.23529411764705882,0.41344911529736184,0.9308072487644141,0.0,,,1,0,0.43918918918919325,1.0,0.06919275123558598,0.8,2,my
100,4,4,2,2,0,0,0.28255997602190874,0.4358974358974359,0.8823529411764706,0.7058823529411765,0.6666666666666673,0.8665568369028003,0.0,,,1,1,0.7027027027027041,1.0,0.13344316309719986,0.8,2,my
101,5,4,5,1,1,1,0.22510391190514947,0.41025641025641024,0.5294117647058824,0.7647058823529411,0.4622501635210246,0.23448654585392684,0.42055052621300987,,,1,1,0.47972972972972894,0.16666666666666666,0.7655134541460733,0.3,2,my
102,6,4,5,1,0,0,0.05282057353076032,0.23076923076923078,0.5882352941176471,0.4117647058823529,0.13074409009212287,0.7495881383855026,0.0,,,1,1,0.506756756756757,0.8,0.25041186161449747,0.3,2,my
103,7,4,5,2,0,0,0.00019673804893337416,0.28205128205128205,0.5294117647058824,0.6470588235294118,0.27735009811261474,0.9044481054365728,0.0,,,1,1,0.5472972972972991,1.0,0.09555189456342719,0.8,2,my
104,8,4,2,1,0,0,0.33990826190316537,0.5384615384615384,0.7058823529411765,0.8235294117647058,0.6201736729460419,0.8896210873146613,0.0,,,1,1,0.6081081081081122,1.0,0.1103789126853388,0.3,2,my
105,9,4,2,1,1,1,0.00020563403027644742,0.4358974358974359,0.8235294117647058,0.11764705882352941,0.7220578379655767,0.5967224486256824,0.2635786110641883,,,1,1,0.35135135135135204,0.5684210526316008,0.4032775513743178,0.3,2,my
106,10,4,2,1,0,0,0.11057123149122657,0.3333333333333333,0.11764705882352941,0.7058823529411765,0.7453559924999296,0.8780889621087316,0.0,,,1,1,0.6554054054054049,1.0,0.12191103789126852,0.3,2,my
107,11,4,5,1,1,1,0.16775288879886535,0.1794871794871795,0.5294117647058824,0.7058823529411765,0.36980013081681967,0.879553358960277,0.12765694770084512,,,1,1,0.5743243243243272,0.9777777777777998,0.12044664103972318,0.3,2,my
108,12,4,2,2,1,0,0.3255805996438871,0.6666666666666666,0.17647058823529413,0.7647058823529411,0.7220578379655767,0.467404095081196,0.8020696332919176,,,1,0,0.5540540540540562,0.4714285714286007,0.532595904918804,0.8,2,my
109,13,4,2,1,1,0,0.1390390560953212,0.5128205128205128,0.8235294117647058,0.058823529411764705,0.7952852522702986,0.20742848584693727,0.6570738404061081,,,1,0,0.6418918918918909,0.18181818181820025,0.7925715141530628,0.3,2,my
110,14,4,5,1,0,1,0.09606667606447271,0.46153846153846156,0.5294117647058824,0.23529411764705882,0.36980013081681967,0.5766062602965402,0.0,,,1,0,0.5405405405405421,0.6,0.42339373970346,0.3,2,my
111,15,4,2,1,0,0,0.00019092144574751286,0.3076923076923077,0.11764705882352941,0.7647058823529411,0.7952852522702986,0.22240527182866598,0.0,,,1,1,0.6418918918918909,0.2,0.7775947281713341,0.3,2,my
112,16,4,2,1,0,0,0.0001813411581472845,0.358974358974359,0.17647058823529413,0.17647058823529413,0.7220578379655767,0.09390444810543706,0.0,,,1,1,0.493243243243243,0.0,0.906095551894563,0.3,2,my
113,17,4,2,1,1,1,0.268199124909158,0.4358974358974359,0.8823529411764706,0.11764705882352941,0.7844645405527358,0.5191190496835171,0.4830055351427743,,,1,1,0.38513513513513714,0.48421052631579947,0.4808809503164831,0.3,2,my
114,18,4,5,2,0,1,0.15330684155709726,0.2564102564102564,0.8823529411764706,0.7058823529411765,0.6666666666666673,0.3822075782537071,0.0,,,1,0,0.662162162162162,0.4,0.617792421746293,0.8,2,my
115,19,4,5,2,1,1,0.0959294726599121,0.23076923076923078,0.6470588235294118,0.7647058823529411,0.4978586625371179,0.54844990265089,0.4979959839195489,,,1,1,0.5945945945945982,0.5818181818182002,0.4515500973491102,0.8,2,my
116,20,4,2,2,0,0,0.2394103606704562,0.1794871794871795,0.5294117647058824,0.23529411764705882,0.36980013081681967,0.06754530477759414,0.0,,,1,1,0.6013513513513552,0.0,0.9324546952224059,0.8,2,my
117,21,4,2,2,0,1,0.13919507792195354,0.2564102564102564,0.23529411764705882,0.058823529411764705,0.7952852522702986,0.3558484349258642,0.0,,,1,0,0.7702702702702743,0.4,0.644151565074136,0.8,2,my
118,22,4,2,1,1,0,0.2969013244063301,0.48717948717948717,0.47058823529411764,0.7647058823529411,0.47140452079103157,0.6774142935592687,0.16714217880746848,,,1,0,0.6418918918918909,0.7523809523809329,0.32258570644073137,0.3,2,my
119,23,4,5,1,0,1,0.5695758122373122,0.5641025641025641,0.7647058823529411,0.7058823529411765,0.522976360368491,0.26194398682042874,0.0,,,1,0,0.47972972972972894,0.2,0.7380560131795714,0.3,2,my
120,24,4,5,1,0,1,0.03857194864418403,0.3076923076923077,0.5294117647058824,0.47058823529411764,0.0,0.7940691927512358,0.0,,,1,0,0.32432432432432395,0.8,0.20593080724876434,0.3,2,my
121,25,4,2,2,1,1,0.0002158986241338452,0.28205128205128205,0.11764705882352941,0.7058823529411765,0.7453559924999296,0.24876441515650727,0.0,,,1,1,0.5337837837837851,0.2,0.7512355848434928,0.8,2,my
122,26,4,2,2,1,1,0.00014986307031793607,0.3333333333333333,0.8823529411764706,0.6470588235294118,0.6201736729460419,0.5568369028006582,0.0,,,1,1,0.6216216216216263,0.6,0.44316309719934194,0.8,2,my
123,27,4,5,2,1,1,0.00014575723277497683,0.2564102564102564,0.8823529411764706,0.5882352941176471,0.5847053462046867,0.5908841295991205,0.11055415967851341,,,1,1,0.4256756756756792,0.5833333333333334,0.4091158704008796,0.8,2,my
124,28,4,5,1,1,1,0.32582592343707906,0.48717948717948717,0.4117647058823529,0.7058823529411765,0.41344911529736184,0.2759865066290108,0.4350515386363337,,,1,1,0.48648648648648596,0.21904761904759956,0.7240134933709893,0.3,2,my
125,29,4,5,2,1,1,0.18194642703174008,0.5384615384615384,0.23529411764705882,0.6470588235294118,0.5390716933750936,0.42976864121481306,0.6707123619434551,,,1,1,0.20270270270270407,0.32173913043480035,0.570231358785187,0.8,2,my
126,30,4,5,2,0,0,0.06720503320938274,0.28205128205128205,0.7647058823529411,0.058823529411764705,0.7453559924999296,0.9818780889621083,0.0,,,1,1,0.22972972972973216,1.0,0.01812191103789185,0.8,2,my
127,31,4,5,1,1,0,0.9427892596764328,0.38461538461538464,0.5294117647058824,0.7058823529411765,0.36980013081681967,0.5246632425622625,0.47927641539401944,,,1,0,0.5945945945945982,0.5529411764706007,0.47533675743773757,0.3,2,my
128,32,4,5,2,1,1,0.19638494690467692,0.4358974358974359,0.11764705882352941,0.17647058823529413,0.7952852522702986,0.7129107777681425,0.693045374299697,,,1,1,0.6216216216216263,0.7894736842105335,0.2870892222318577,0.8,2,my
129,1,5,5,1,1,1,8.211675085913921e-05,0.46153846153846156,0.7647058823529411,0.4117647058823529,0.3811812499312439,0.2602965403624386,0.6702709585643231,,,1,1,0.68918918918919,0.2600000000000004,0.7397034596375615,0.3,2,my
130,2,5,2,1,0,0,0.3256196051005458,0.41025641025641024,0.5294117647058824,0.17647058823529413,0.4622501635210246,0.029654036243821527,0.0,,,1,1,0.7567567567567602,0.0,0.9703459637561785,0.3,2,my
131,3,5,2,1,1,1,0.0003418109754511962,0.3333333333333333,0.17647058823529413,0.7058823529411765,0.6666666666666673,0.7067545304777597,0.0,,,1,1,0.682432432432433,0.8,0.2932454695222404,0.3,2,my
132,4,5,5,1,1,1,0.00033941590355113905,0.20512820512820512,0.7058823529411765,0.7058823529411765,0.4622501635210246,0.8649093904448102,0.12110601416389973,,,1,1,0.6418918918918909,0.9799999999999992,0.13509060955518998,0.3,2,my
133,5,5,5,1,1,1,0.15332942366358393,0.3076923076923077,0.7647058823529411,0.11764705882352941,0.6666666666666673,0.4269239821134391,0.5303257689811248,,,1,1,0.5270270270270281,0.4142857142857338,0.5730760178865609,0.3,2,my
134,6,5,5,2,1,0,0.3400485446858836,0.23076923076923078,0.23529411764705882,0.11764705882352941,0.7220578379655767,0.5852927961659427,0.38643671323171874,,,1,0,0.68918918918919,0.6545454545454674,0.41470720383405746,0.8,2,my
135,7,5,2,1,0,0,0.3111701363274933,0.358974358974359,0.7647058823529411,0.11764705882352941,0.6666666666666673,0.016474464579901673,0.0,,,1,1,0.81081081081081,0.0,0.9835255354200985,0.3,2,my
136,8,5,2,2,0,0,0.00021042417407656175,0.3076923076923077,0.23529411764705882,0.11764705882352941,0.7220578379655767,0.8764415156507415,0.0,,,1,1,0.662162162162162,1.0,0.12355848434925859,0.8,2,my
137,9,5,5,2,1,1,9.101273220222713e-05,0.23076923076923078,0.17647058823529413,0.7058823529411765,0.6666666666666673,0.6730567620188701,0.2633122354417539,,,1,1,0.513513513513514,0.7090909090909331,0.32694323798113,0.8,2,my
138,10,5,5,1,0,1,0.06723308976592625,0.4358974358974359,0.29411764705882354,0.7647058823529411,0.5919690451597532,0.2141680395387154,0.0,,,1,0,0.675675675675676,0.2,0.7858319604612847,0.3,2,my
139,11,5,2,2,0,0,0.6987485407169072,0.7435897435897436,0.7058823529411765,0.7058823529411765,0.4622501635210246,0.1334431630971998,0.0,,,1,1,0.331081081081081,0.0,0.8665568369028004,0.8,2,my
140,12,5,2,2,0,0,0.0001987909677048538,0.358974358974359,0.11764705882352941,0.7058823529411765,0.7453559924999296,0.9291598023064239,0.0,,,1,1,0.4459459459459503,1.0,0.07084019769357605,0.8,2,my
141,13,5,2,1,0,1,0.13899047035106288,0.46153846153846156,0.7647058823529411,0.11764705882352941,0.6666666666666673,0.9390444810543654,0.0,,,1,0,0.40540540540540815,1.0,0.06095551894563479,0.3,2,my
142,14,5,2,1,1,1,0.0001963958958047966,0.358974358974359,0.17647058823529413,0.23529411764705882,0.6666666666666673,0.5712520593080728,0.2197220466356933,,,1,1,0.5202702702702711,0.5875,0.42874794069192734,0.3,2,my
143,15,5,2,2,1,0,0.2106407570069539,0.358974358974359,0.11764705882352941,0.7647058823529411,0.7952852522702986,0.5259472817133435,0.28722813232690153,,,1,0,0.6216216216216263,0.5625,0.4740527182866567,0.8,2,my
144,16,5,2,2,1,1,0.2680502882982261,0.358974358974359,0.8823529411764706,0.7647058823529411,0.7220578379655767,0.7915980230642494,0.1914854215512677,,,1,1,0.5878378378378412,0.875,0.2084019769357506,0.8,2,my
145,17,5,5,1,0,1,0.5121300127144103,0.5384615384615384,0.8823529411764706,0.6470588235294118,0.6201736729460419,0.44481054365733075,0.0,,,1,0,0.40540540540540815,0.4,0.5551894563426694,0.3,2,my
146,18,5,2,1,0,0,0.36868505078236763,0.15384615384615385,0.058823529411764705,0.11764705882352941,0.9245003270420492,0.20263591433278408,0.0,,,1,1,0.7229729729729751,0.2,0.7973640856672161,0.3,2,my
147,19,5,2,1,1,0,0.009858458093769121,0.46153846153846156,0.8235294117647058,0.7058823529411765,0.5919690451597532,0.42339373970346,0.17013926184468045,,,1,0,0.32432432432432395,0.35,0.5766062602965402,0.3,2,my
148,20,5,2,2,1,0,0.12463851521965547,0.46153846153846156,0.17647058823529413,0.17647058823529413,0.7220578379655767,0.8434925864909381,0.1964598972515005,,,1,0,0.4594594594594643,0.9,0.156507413509062,0.8,2,my
149,21,5,2,1,1,1,0.0002128192459766186,0.1794871794871795,0.35294117647058826,0.7647058823529411,0.5390716933750936,0.3399231191652936,0.1914854215512677,,,1,1,0.38513513513513714,0.26666666666666666,0.6600768808347065,0.3,2,my
150,22,5,5,2,0,1,0.3686149093910085,0.46153846153846156,0.23529411764705882,0.7058823529411765,0.5919690451597532,0.3822075782537071,0.0,,,1,0,0.662162162162162,0.4,0.617792421746293,0.8,2,my
151,23,5,5,1,0,1,0.3543652580450462,0.46153846153846156,0.6470588235294118,0.058823529411764705,0.6730463973541897,0.3064250411861607,0.0,,,1,0,0.2972972972973023,0.2,0.6935749588138393,0.3,2,my
152,24,5,5,2,0,0,0.0003390737504225615,0.41025641025641024,0.5882352941176471,0.17647058823529413,0.47140452079103157,0.40691927512355824,0.0,,,1,1,0.5608108108108132,0.4,0.5930807248764418,0.8,2,my
153,25,5,5,2,0,0,0.19635723250126227,0.3076923076923077,0.11764705882352941,0.7058823529411765,0.7453559924999296,0.950576606260296,0.0,,,1,1,0.35810810810810906,1.0,0.049423393739704044,0.8,2,my
154,26,5,5,1,1,1,0.3113925358610702,0.3333333333333333,0.47058823529411764,0.5294117647058824,0.13074409009212287,0.3997803404722678,0.6287301386935312,,,1,1,0.5,0.37333333333333296,0.6002196595277324,0.3,2,my
155,27,5,2,2,0,1,0.1103614916234071,0.41025641025641024,0.8823529411764706,0.7647058823529411,0.7220578379655767,0.6968698517298184,0.0,,,1,0,0.7229729729729751,0.8,0.30313014827018164,0.8,2,my
156,28,5,5,1,0,0,0.000294251690578603,0.10256410256410256,0.47058823529411764,0.29411764705882354,0.29235267310234336,0.014827018121911593,0.0,,,1,1,0.817567567567567,0.0,0.9851729818780884,0.3,2,my
157,29,5,2,2,1,1,0.03852438935931146,0.5384615384615384,0.17647058823529413,0.7647058823529411,0.7220578379655767,0.7991547883389453,0.43539087885634914,,,1,1,0.47972972972972894,0.8521739130434658,0.20084521166105485,0.8,2,my
158,30,5,5,2,1,1,0.00021555647100525332,0.23076923076923078,0.058823529411764705,0.17647058823529413,0.8721718641894848,0.4136588288153359,0.20655911179772884,,,1,1,0.5945945945945982,0.4181818181817997,0.5863411711846642,0.8,2,my
159,31,5,5,2,0,1,0.0003397580566797166,0.48717948717948717,0.8235294117647058,0.17647058823529413,0.6537204504606143,0.4003294892915973,0.0,,,1,0,0.5878378378378412,0.4,0.5996705107084028,0.8,2,my
160,32,5,5,2,1,0,0.024140613986946186,0.358974358974359,0.17647058823529413,0.11764705882352941,0.7844645405527358,0.3574958813838543,0.453137212479105,,,1,0,0.5945945945945982,0.35,0.6425041186161459,0.8,2,my
1,1,1,5,1,0,1,0.5121341185519529,0.15384615384615385,0.23529411764705882,0.47058823529411764,0.4622501635210246,0.7561779242174632,0.0,,,1,0,0.47972972972972894,0.8,0.24382207578253698,0.3,3,my
2,2,1,2,2,0,0,0.0003407845160654636,0.23076923076923078,0.11764705882352941,0.17647058823529413,0.7952852522702986,0.4019769357495879,0.0,,,1,1,0.5810810810810842,0.4,0.5980230642504122,0.6,3,my
3,3,1,5,2,1,1,0.052999177463878944,0.358974358974359,0.47058823529411764,0.6470588235294118,0.29235267310234336,0.7285831960461276,0.7719024117939607,,,1,1,0.6351351351351403,0.8125,0.2714168039538725,0.6,3,my
4,4,1,5,2,0,1,0.19633225532287651,0.4358974358974359,0.4117647058823529,0.6470588235294118,0.3333333333333327,0.23723228995057646,0.0,,,1,0,0.5810810810810842,0.2,0.7627677100494237,0.6,3,my
5,5,1,5,1,1,1,0.00020152819273348818,0.4358974358974359,0.47058823529411764,0.23529411764705882,0.3811812499312439,0.4035376744992628,0.519784030724773,,,1,1,0.43243243243243623,0.35789473684213247,0.5964623255007373,0.3,3,my
6,6,1,2,1,0,0,0.2825196019527363,0.5384615384615384,0.5294117647058824,0.7058823529411765,0.36980013081681967,0.8533772652388787,0.0,,,1,1,0.7567567567567602,1.0,0.1466227347611213,0.3,3,my
7,7,1,5,1,1,1,0.03854389208764052,0.5641025641025641,0.5882352941176471,0.5294117647058824,0.13074409009212287,0.733113673805601,0.11293194051465605,,,1,1,0.5743243243243272,0.8,0.2668863261943991,0.3,3,my
8,8,1,2,2,1,1,0.39743138803312644,0.358974358974359,0.17647058823529413,0.17647058823529413,0.7220578379655767,0.6820428336079069,0.5232377832092958,,,1,1,0.4459459459459503,0.7,0.31795716639209326,0.6,3,my
9,9,1,2,1,0,0,0.03884430253453346,0.5641025641025641,0.23529411764705882,0.7058823529411765,0.5919690451597532,0.10214168039538654,0.0,,,1,1,0.4594594594594643,0.0,0.8978583196046135,0.3,3,my
10,10,1,5,2,1,1,0.3975367711967286,0.4358974358974359,0.4117647058823529,0.47058823529411764,0.18490006540840984,0.05930807248764355,0.0,,,1,1,0.6351351351351403,0.0,0.9406919275123565,0.6,3,my
11,11,1,2,1,1,1,0.4551324337899477,0.6923076923076923,0.8823529411764706,0.11764705882352941,0.7844645405527358,0.3743111969550635,0.6611429621650383,,,1,1,0.6013513513513552,0.3724137931034666,0.6256888030449366,0.3,3,my
12,12,1,2,2,1,1,0.09583503839642414,0.5384615384615384,0.47058823529411764,0.6470588235294118,0.29235267310234336,0.49416230929016425,0.35221864092420313,,,1,1,0.7905405405405453,0.5739130434782661,0.5058376907098359,0.6,3,my
13,13,1,5,2,0,0,0.1392145806502826,0.4358974358974359,0.47058823529411764,0.17647058823529413,0.47140452079103157,0.38879736408566645,0.0,,,1,1,0.6351351351351403,0.4,0.6112026359143337,0.6,3,my
14,14,1,2,2,1,1,0.1245218410028098,0.28205128205128205,0.23529411764705882,0.058823529411764705,0.7952852522702986,0.32137878595868624,0.16794382455192586,,,1,1,0.39189189189189416,0.24615384615386612,0.6786212140413138,0.6,3,my
15,15,1,2,2,1,1,0.19666893400139915,0.15384615384615385,0.8823529411764706,0.11764705882352941,0.7844645405527358,0.8764415156507415,0.0,,,1,1,0.662162162162162,1.0,0.12355848434925859,0.6,3,my
16,16,1,2,1,0,0,0.00031375441890765164,0.2564102564102564,0.23529411764705882,0.058823529411764705,0.7952852522702986,0.8764415156507415,0.0,,,1,1,0.662162162162162,1.0,0.12355848434925859,0.3,3,my
17,17,1,5,2,1,1,0.49806854558916697,0.48717948717948717,0.11764705882352941,0.17647058823529413,0.7952852522702986,0.5278889150388323,0.5826049874731349,,,1,1,0.5472972972972991,0.5428571428571332,0.4721110849611678,0.6,3,my
18,18,1,2,2,0,0,0.4403312316007159,0.4358974358974359,0.8235294117647058,0.11764705882352941,0.7220578379655767,0.10378912685337667,0.0,,,1,1,0.4527027027027073,0.0,0.8962108731466235,0.6,3,my
19,19,1,5,1,1,1,0.0003373629847796594,0.1794871794871795,0.4117647058823529,0.058823529411764705,0.6730463973541897,0.6556836902800656,0.5744562646538031,,,1,1,0.8918918918918941,0.8,0.3443163097199345,0.3,3,my
20,20,1,2,1,1,1,0.25401379835137,0.3333333333333333,0.8235294117647058,0.058823529411764705,0.7952852522702986,0.5952773201537619,0.8907282556407565,,,1,1,0.5540540540540562,0.626666666666667,0.40472267984623816,0.3,3,my
21,21,1,2,2,0,0,0.00029904183437871705,0.6153846153846154,0.8235294117647058,0.7058823529411765,0.5919690451597532,0.522240527182866,0.0,,,1,1,0.7635135135135173,0.6,0.47775947281713416,0.6,3,my
22,22,1,2,1,1,0,0.3686285955161516,0.5897435897435898,0.11764705882352941,0.11764705882352941,0.852347186594598,0.37232289950576586,0.7811103208467632,,,1,0,0.6486486486486479,0.3839999999999994,0.6276771004942342,0.3,3,my
23,23,1,2,2,0,0,0.28296440101988996,0.4358974358974359,0.23529411764705882,0.7647058823529411,0.6537204504606143,0.662273476112026,0.0,,,1,1,0.864864864864866,0.8,0.33772652388797403,0.6,3,my
24,24,1,2,1,0,0,0.11036114947027852,0.46153846153846156,0.8823529411764706,0.7647058823529411,0.7220578379655767,0.3937397034596368,0.0,,,1,1,0.6148648648648692,0.4,0.6062602965403633,0.3,3,my
25,25,1,5,1,0,1,0.6269617349627123,0.3076923076923077,0.47058823529411764,0.7058823529411765,0.3811812499312439,0.5881383855024714,0.0,,,1,0,0.493243243243243,0.6,0.41186161449752867,0.3,3,my
26,26,1,5,1,0,0,0.00026003637772063423,0.1282051282051282,0.058823529411764705,0.11764705882352941,0.9245003270420492,0.5453047775947284,0.0,,,1,1,0.668918918918919,0.6,0.4546952224052717,0.3,3,my
27,27,1,5,2,1,0,0.35426158564708765,0.2564102564102564,0.5294117647058824,0.23529411764705882,0.36980013081681967,0.611751784733662,0.7888106377466161,,,1,0,0.6216216216216263,0.6666666666666666,0.38824821526633807,0.6,3,my
28,28,1,2,1,1,0,0.42602170345725177,0.3076923076923077,0.9411764705882353,0.17647058823529413,0.7952852522702986,0.8830313014827009,0.0,,,1,0,0.6351351351351403,1.0,0.11696869851729925,0.3,3,my
29,29,1,5,2,0,0,0.00029938398750730896,0.20512820512820512,0.11764705882352941,0.23529411764705882,0.7453559924999296,0.6342668863261947,0.0,,,1,1,0.30405405405405295,0.6,0.36573311367380545,0.6,3,my
30,30,1,5,1,1,0,0.39725757424380725,0.20512820512820512,0.5294117647058824,0.17647058823529413,0.4622501635210246,0.522240527182866,0.0,,,1,0,0.7635135135135173,0.6,0.47775947281713416,0.3,3,my
31,31,1,5,2,0,0,0.18220167326565948,0.28205128205128205,0.5882352941176471,0.6470588235294118,0.29235267310234336,0.7166392092257003,0.0,,,1,1,0.6418918918918909,0.8,0.2833607907742997,0.6,3,my
32,32,1,5,1,0,1,0.0003452325067370001,0.23076923076923078,0.4117647058823529,0.11764705882352941,0.5847053462046867,0.9571663920922572,0.0,,,1,0,0.331081081081081,1.0,0.042833607907742946,0.3,3,my
33,1,2,2,1,1,1,0.1392665879258267,0.23076923076923078,0.47058823529411764,0.11764705882352941,0.5623515948579827,0.8906694623333828,0.4618802153517003,,,1,1,0.35810810810810906,0.9272727272727328,0.1093305376666172,0.3,3,my
34,2,2,2,1,1,1,0.0001970802020619517,0.23076923076923078,0.17647058823529413,0.7058823529411765,0.6666666666666673,0.7314662273476109,0.0,,,1,1,0.5810810810810842,0.8,0.26853377265238926,0.3,3,my
35,3,2,5,2,0,0,0.23941720373302777,0.41025641025641024,0.17647058823529413,0.7647058823529411,0.7220578379655767,0.4596375617792423,0.0,,,1,1,0.344594594594595,0.4,0.5403624382207578,0.6,3,my
36,4,2,2,1,1,1,0.00021555647100525332,0.4358974358974359,0.29411764705882354,0.058823529411764705,0.7453559924999296,0.8363825544090875,0.43929768510698003,,,1,1,0.6486486486486479,0.9473684210525998,0.1636174455909126,0.3,3,my
37,5,2,5,1,1,0,0.00026516867464932613,0.3076923076923077,0.23529411764705882,0.7647058823529411,0.6537204504606143,0.38361967521769724,0.44342985536614143,,,1,0,0.2702702702702742,0.2857142857142662,0.6163803247823029,0.3,3,my
38,6,2,5,2,1,0,0.35420513038087165,0.5128205128205128,0.6470588235294118,0.23529411764705882,0.41344911529736184,0.7367081024412155,0.5237229365663824,,,1,0,0.682432432432433,0.8363636363636658,0.2632918975587846,0.6,3,my
39,7,2,5,2,1,1,0.08152687886547506,0.3333333333333333,0.17647058823529413,0.7058823529411765,0.6666666666666673,0.1576057111477215,0.1868706368604628,,,1,1,0.682432432432433,0.13333333333333333,0.8423942888522786,0.6,3,my
40,8,2,2,1,1,1,0.15357098377236167,0.5641025641025641,0.058823529411764705,0.7058823529411765,0.8268982305947237,0.1592531576057116,0.40587473377497707,,,1,1,0.8445945945945951,0.18333333333333332,0.8407468423942885,0.3,3,my
41,9,2,5,2,1,1,0.010001820254644044,0.15384615384615385,0.4117647058823529,0.17647058823529413,0.4978586625371179,0.4176276771004935,0.7219352299136516,,,1,1,0.43243243243243623,0.375,0.5823723228995066,0.6,3,my
42,10,2,5,1,1,1,0.28281351149018596,0.38461538461538464,0.29411764705882354,0.17647058823529413,0.5919690451597532,0.5486965791258828,0.5435900993197275,,,1,1,0.2972972972973023,0.49411764705880046,0.4513034208741173,0.3,3,my
43,11,2,5,1,0,0,0.5408681382900837,0.3076923076923077,0.11764705882352941,0.17647058823529413,0.7952852522702986,0.27512355848434855,0.0,,,1,1,0.4256756756756792,0.2,0.7248764415156516,0.3,3,my
44,12,2,2,1,0,0,0.12482704159350298,0.3333333333333333,0.9411764705882353,0.7647058823529411,0.7952852522702986,0.4695222405271834,0.0,,,1,1,0.30405405405405295,0.4,0.5304777594728167,0.3,3,my
45,13,2,2,2,0,0,0.06717458158093906,0.2564102564102564,0.4117647058823529,0.11764705882352941,0.5847053462046867,0.051070840197694124,0.0,,,1,1,0.668918918918919,0.0,0.9489291598023061,0.6,3,my
46,14,2,5,1,0,0,0.12466691392932769,0.2564102564102564,0.5294117647058824,0.11764705882352941,0.5547001962252295,0.3772652388797368,0.0,,,1,1,0.682432432432433,0.4,0.6227347611202633,0.3,3,my
47,15,2,5,2,0,1,0.18202546440444134,0.1794871794871795,0.9411764705882353,0.11764705882352941,0.852347186594598,0.6359143327841836,0.0,,,1,0,0.2972972972973023,0.6,0.3640856672158164,0.6,3,my
48,16,2,5,1,0,1,0.32546118820201336,0.41025641025641024,0.17647058823529413,0.17647058823529413,0.7220578379655767,0.7479406919275126,0.0,,,1,0,0.513513513513514,0.8,0.25205930807248755,0.3,3,my
49,17,2,2,2,0,0,0.0003500226505371144,0.38461538461538464,0.8235294117647058,0.11764705882352941,0.7220578379655767,0.5716639209225698,0.0,,,1,1,0.5608108108108132,0.6,0.4283360790774304,0.6,3,my
50,18,2,2,2,0,0,0.49792381481577774,0.2564102564102564,0.5294117647058824,0.7058823529411765,0.36980013081681967,0.9225700164744648,0.0,,,1,1,0.4729729729729719,1.0,0.0774299835255354,0.6,3,my
51,19,2,2,2,1,0,0.1534649163025012,0.5897435897435898,0.17647058823529413,0.17647058823529413,0.7220578379655767,0.3443163097199345,0.18233059108236463,,,1,0,0.35810810810810906,0.2640000000000005,0.6556836902800657,0.6,3,my
52,20,2,2,2,1,1,0.31140006322989855,0.38461538461538464,0.17647058823529413,0.17647058823529413,0.7220578379655767,0.48095745711793725,0.7050935134754105,,,1,1,0.6148648648648692,0.5058823529411995,0.5190425428820629,0.6,3,my
53,21,2,5,2,1,0,0.3542540582782578,0.358974358974359,0.5882352941176471,0.11764705882352941,0.5623515948579827,0.71004942339374,0.8563488385776756,,,1,0,0.5,0.75,0.28995057660626017,0.6,3,my
54,22,2,5,1,1,1,0.3256120777317159,0.1794871794871795,0.5882352941176471,0.5294117647058824,0.13074409009212287,0.4953322350356951,0.3829708431025354,,,1,1,0.6486486486486479,0.5333333333333333,0.504667764964305,0.3,3,my
55,23,2,2,2,1,0,0.00030999073449328456,0.23076923076923078,0.29411764705882354,0.058823529411764705,0.7453559924999296,0.0840197693574958,0.0,,,1,0,0.5337837837837851,0.0,0.9159802306425043,0.6,3,my
56,24,2,2,1,0,0,0.21096614463223387,0.2564102564102564,0.11764705882352941,0.17647058823529413,0.7952852522702986,0.04612850082372369,0.0,,,1,1,0.68918918918919,0.0,0.9538714991762764,0.3,3,my
57,25,2,2,2,0,1,0.1103758620548075,0.5384615384615384,0.8823529411764706,0.6470588235294118,0.6201736729460419,0.4283360790774303,0.0,,,1,0,0.4729729729729719,0.4,0.5716639209225698,0.6,3,my
58,26,2,5,2,0,0,0.09583059040575262,0.1794871794871795,0.7058823529411765,0.29411764705882354,0.3922322702763679,0.36738056013179554,0.0,,,1,1,0.7229729729729751,0.4,0.6326194398682046,0.6,3,my
59,27,2,2,1,0,0,0.024183383128018664,0.5641025641025641,0.7647058823529411,0.7647058823529411,0.5919690451597532,0.86326194398682,0.0,,,1,1,0.7162162162162181,1.0,0.13673805601318006,0.3,3,my
60,28,2,5,1,1,0,0.39746731411162634,0.5384615384615384,0.5294117647058824,0.11764705882352941,0.5547001962252295,0.42740491368813155,0.5823490660957648,,,1,0,0.682432432432433,0.4608695652173992,0.5725950863118685,0.3,3,my
61,29,2,5,1,0,1,0.00019400082390473946,0.2564102564102564,0.7647058823529411,0.5294117647058824,0.3811812499312439,0.25205930807248805,0.0,,,1,0,0.5202702702702711,0.2,0.7479406919275121,0.3,3,my
62,30,2,2,2,1,1,0.23944183875828506,0.48717948717948717,0.8823529411764706,0.7647058823529411,0.7220578379655767,0.35490703694986964,0.5826049874731349,,,1,1,0.5810810810810842,0.3428571428571331,0.6450929630501304,0.6,3,my
63,31,2,5,2,0,0,0.1677751287522222,0.46153846153846156,0.7647058823529411,0.7647058823529411,0.5919690451597532,0.38550247116968733,0.0,,,1,1,0.6486486486486479,0.4,0.6144975288303127,0.6,3,my
64,32,2,2,1,0,1,0.36865323054140897,0.5641025641025641,0.8823529411764706,0.7058823529411765,0.6666666666666673,0.8434925864909381,0.0,,,1,0,0.7972972972973024,1.0,0.156507413509062,0.3,3,my
65,1,3,2,1,1,1,0.09585214605285315,0.358974358974359,0.8823529411764706,0.23529411764705882,0.6666666666666673,0.21499176276770937,0.39242833740697186,,,1,1,0.5878378378378412,0.175,0.7850082372322906,0.3,3,my
66,2,3,5,2,1,1,0.23943773292074239,0.5128205128205128,0.11764705882352941,0.23529411764705882,0.7453559924999296,0.20173730717388128,0.08164965809277258,,,1,1,0.695945945945947,0.19090909090906696,0.7982626928261188,0.6,3,my
67,3,3,2,2,1,1,0.15348612979647416,0.6153846153846154,0.11764705882352941,0.6470588235294118,0.7040784727049219,0.4520339627423647,0.8083665073816518,,,1,1,0.47972972972972894,0.4307692307691999,0.5479660372576354,0.6,3,my
68,4,3,5,2,1,1,0.00019981742709058642,0.41025641025641024,0.6470588235294118,0.17647058823529413,0.4978586625371179,0.38001098297638586,0.707384023612878,,,1,1,0.4459459459459503,0.3333333333333333,0.6199890170236142,0.6,3,my
69,5,3,5,2,0,1,0.13904897853604992,0.20512820512820512,0.17647058823529413,0.23529411764705882,0.6666666666666673,0.15980230642504106,0.0,,,1,0,0.8986486486486511,0.2,0.8401976935749591,0.6,3,my
70,6,3,2,1,1,0,0.08160386331940545,0.41025641025641024,0.11764705882352941,0.058823529411764705,0.915208630644859,0.20263591433278408,0.3940737464575115,,,1,0,0.7229729729729751,0.2,0.7973640856672161,0.3,3,my
71,7,3,5,2,0,0,0.18225162762243238,0.5384615384615384,0.8235294117647058,0.7058823529411765,0.5919690451597532,0.41680395387149954,0.0,,,1,1,0.5202702702702711,0.4,0.5831960461285006,0.6,3,my
72,8,3,5,2,1,0,0.00021624077726242275,0.46153846153846156,0.23529411764705882,0.11764705882352941,0.7220578379655767,0.2899505766062601,0.785839589006002,,,1,0,0.3648648648648661,0.2,0.71004942339374,0.6,3,my
73,9,3,5,1,1,1,0.0002100820209479842,0.20512820512820512,0.4117647058823529,0.8235294117647058,0.5847053462046867,0.4728171334431622,0.8124038404635966,,,1,1,0.6283783783783833,0.5,0.5271828665568379,0.3,3,my
74,10,3,2,2,0,0,0.42629747887888725,0.2564102564102564,0.17647058823529413,0.11764705882352941,0.7844645405527358,0.19110378912685272,0.0,,,1,1,0.7702702702702743,0.2,0.8088962108731473,0.6,3,my
75,11,3,5,1,1,1,0.3974642347334704,0.4358974358974359,0.17647058823529413,0.5882352941176471,0.5847053462046867,0.7748200815052452,0.539221878189423,,,1,1,0.5810810810810842,0.8526315789474003,0.225179918494755,0.3,3,my
76,12,3,2,1,0,0,0.00029219877180712344,0.5128205128205128,0.8235294117647058,0.23529411764705882,0.5919690451597532,0.9291598023064239,0.0,,,1,1,0.4459459459459503,1.0,0.07084019769357605,0.3,3,my
77,13,3,5,1,1,0,0.009951181591614237,0.1794871794871795,0.23529411764705882,0.5294117647058824,0.47140452079103157,0.5852095917993776,0.25531389540169025,,,1,0,0.6554054054054049,0.6444444444444666,0.4147904082006226,0.3,3,my
78,14,3,5,1,0,0,0.02413034939308886,0.46153846153846156,0.47058823529411764,0.7647058823529411,0.47140452079103157,0.9159802306425043,0.0,,,1,1,0.5,1.0,0.08401976935749586,0.3,3,my
79,15,3,5,2,0,0,0.00034283743483692853,0.1282051282051282,0.058823529411764705,0.17647058823529413,0.8721718641894848,0.9637561779242176,0.0,,,1,1,0.30405405405405295,1.0,0.03624382207578253,0.6,3,my
80,16,3,2,2,1,0,0.4403989779201745,0.3076923076923077,0.5294117647058824,0.058823529411764705,0.6471502289294344,0.13862085196516902,0.3590790009701608,,,1,0,0.695945945945947,0.11428571428573378,0.8613791480348311,0.6,3,my
81,17,3,5,1,0,1,0.2968777158404581,0.5128205128205128,0.8823529411764706,0.7058823529411765,0.6666666666666673,0.4596375617792423,0.0,,,1,0,0.344594594594595,0.4,0.5403624382207578,0.3,3,my
82,18,3,5,1,1,0,0.00011735852310286934,0.38461538461538464,0.23529411764705882,0.7647058823529411,0.6537204504606143,0.3609845915301865,0.3940737464575115,,,1,0,0.7094594594594611,0.3882352941176672,0.6390154084698135,0.3,3,my
83,19,3,5,2,0,1,0.6270212696070857,0.15384615384615385,0.17647058823529413,0.058823529411764705,0.852347186594598,0.8171334431630968,0.0,,,1,0,0.22972972972973216,0.8,0.18286655683690325,0.6,3,my
84,20,3,2,1,0,0,0.19662924423848357,0.5128205128205128,0.29411764705882354,0.8235294117647058,0.6666666666666673,0.24382207578253692,0.0,,,1,1,0.5540540540540562,0.2,0.7561779242174632,0.3,3,my
85,21,3,2,2,0,0,0.182206121256332,0.28205128205128205,0.17647058823529413,0.11764705882352941,0.7844645405527358,0.7627677100494225,0.0,,,1,1,0.4527027027027073,0.8,0.2372322899505776,0.6,3,my
86,22,3,2,1,0,0,0.23948529220561482,0.6153846153846154,0.8235294117647058,0.7058823529411765,0.5919690451597532,0.29489291598023104,0.0,,,1,1,0.344594594594595,0.2,0.7051070840197691,0.3,3,my
87,23,3,2,2,1,1,0.03879776970904664,0.3333333333333333,0.11764705882352941,0.7058823529411765,0.7453559924999296,0.17847336628226237,0.17530019603571106,,,1,1,0.6418918918918909,0.14666666666666592,0.8215266337177378,0.6,3,my
88,24,3,2,1,0,0,0.06744351394000286,0.23076923076923078,0.11764705882352941,0.7647058823529411,0.7952852522702986,0.9390444810543654,0.0,,,1,1,0.40540540540540815,1.0,0.06095551894563479,0.3,3,my
89,25,3,5,1,0,0,0.23952566627478727,0.2564102564102564,0.5882352941176471,0.7058823529411765,0.3811812499312439,0.108731466227347,0.0,,,1,1,0.43243243243243623,0.0,0.891268533772653,0.3,3,my
90,26,3,2,1,1,1,9.751364164522888e-05,0.20512820512820512,0.23529411764705882,0.7647058823529411,0.6537204504606143,0.7973640856672143,0.19776529298921813,,,1,1,0.5810810810810842,0.8799999999999992,0.20263591433278577,0.3,3,my
91,27,3,2,1,1,0,0.282990062504534,0.3333333333333333,0.47058823529411764,0.11764705882352941,0.5623515948579827,0.7347611202635911,0.5259005881071331,,,1,0,0.7027027027027041,0.8399999999999996,0.265238879736409,0.3,3,my
92,28,3,5,1,0,0,0.25380337417729265,0.5897435897435898,0.35294117647058826,0.11764705882352941,0.6201736729460419,0.8023064250411852,0.0,,,1,1,0.2905405405405453,0.8,0.19769357495881484,0.3,3,my
93,29,3,2,2,0,0,0.35432625258838896,0.23076923076923078,0.5882352941176471,0.5294117647058824,0.13074409009212287,0.009884678747941257,0.0,,,1,1,0.837837837837838,0.0,0.9901153212520589,0.6,3,my
94,30,3,2,2,0,1,0.268220338403131,0.3076923076923077,0.4117647058823529,0.11764705882352941,0.5847053462046867,0.37067545304777577,0.0,,,1,0,0.7094594594594611,0.4,0.6293245469522243,0.6,3,my
95,31,3,5,2,1,1,0.00034386389422267553,0.3076923076923077,0.35294117647058826,0.23529411764705882,0.4622501635210246,0.6425041186161441,0.5961414390768486,,,1,1,0.6081081081081122,0.7,0.35749588138385596,0.6,3,my
96,32,3,2,2,1,1,0.4404427735206327,0.41025641025641024,0.8823529411764706,0.7058823529411765,0.6666666666666673,0.6738056013179574,0.5911106196862672,,,1,1,0.47972972972972894,0.7,0.3261943986820427,0.6,3,my
97,1,4,5,2,1,1,0.00010846254175978175,0.23076923076923078,0.5882352941176471,0.7058823529411765,0.3811812499312439,0.5653736708102429,0.9660917830792968,,,1,1,0.7094594594594611,0.6363636363636658,0.43462632918975713,0.6,3,my
98,2,4,5,2,1,1,0.038531916728140166,0.41025641025641024,0.5294117647058824,0.5882352941176471,0.18490006540840984,0.6730734028921832,0.19581681893933595,,,1,1,0.5202702702702711,0.7111111111111332,0.326926597107817,0.6,3,my
99,3,4,5,2,1,1,0.42602136130412327,0.38461538461538464,0.8823529411764706,0.17647058823529413,0.7220578379655767,0.6371741447814704,0.3552132747916881,,,1,1,0.3716216216216231,0.6235294117647338,0.3628258552185298,0.6,3,my
100,4,4,2,1,0,1,0.5120725309888089,0.46153846153846156,0.23529411764705882,0.23529411764705882,0.5919690451597532,0.8896210873146613,0.0,,,1,0,0.6081081081081122,1.0,0.1103789126853388,0.3,3,my
101,5,4,2,2,1,0,0.42623965500015754,0.41025641025641024,0.8823529411764706,0.17647058823529413,0.7220578379655767,0.15193117334797632,0.3610683735393761,,,1,0,0.40540540540540815,0.04444444444446655,0.8480688266520238,0.6,3,my
102,6,4,2,2,1,1,0.00020529187714786988,0.2564102564102564,0.8823529411764706,0.11764705882352941,0.7844645405527358,0.7501372872048322,0.19720265943665372,,,1,1,0.8986486486486511,0.9166666666666666,0.24986271279516795,0.6,3,my
103,7,4,5,1,0,1,0.12462961923831245,0.358974358974359,0.4117647058823529,0.7058823529411765,0.41344911529736184,0.5782537067545301,0.0,,,1,0,0.5337837837837851,0.6,0.4217462932454699,0.3,3,my
104,8,4,2,2,0,0,0.0001963958958047966,0.5384615384615384,0.8235294117647058,0.17647058823529413,0.6537204504606143,0.7298187808896202,0.0,,,1,1,0.5878378378378412,0.8,0.2701812191103799,0.6,3,my
105,9,4,2,1,1,1,0.18215753551207287,0.5384615384615384,0.058823529411764705,0.11764705882352941,0.9245003270420492,0.4327053935964468,0.39120771753746136,,,1,1,0.4256756756756792,0.3913043478260666,0.5672946064035533,0.3,3,my
106,10,4,5,2,0,0,0.010041852170687888,0.358974358974359,0.5294117647058824,0.17647058823529413,0.4622501635210246,0.23723228995057646,0.0,,,1,1,0.5810810810810842,0.2,0.7627677100494237,0.6,3,my
107,11,4,5,2,0,1,0.19652420322800981,0.20512820512820512,0.4117647058823529,0.23529411764705882,0.41344911529736184,0.8023064250411852,0.0,,,1,0,0.2905405405405453,0.8,0.19769357495881484,0.6,3,my
108,12,4,5,1,1,1,0.3974546544458699,0.358974358974359,0.11764705882352941,0.23529411764705882,0.7453559924999296,0.30807248764415085,0.5138093031466052,,,1,1,0.7972972972973024,0.35,0.6919275123558492,0.3,3,my
109,13,4,2,2,0,0,0.21087478974690324,0.2564102564102564,0.17647058823529413,0.8235294117647058,0.7844645405527358,0.23064250411861548,0.0,,,1,1,0.6081081081081122,0.2,0.7693574958813846,0.6,3,my
110,14,4,5,1,0,1,0.3830380323731601,0.23076923076923078,0.5294117647058824,0.11764705882352941,0.5547001962252295,0.927512355848434,0.0,,,1,0,0.4527027027027073,1.0,0.07248764415156612,0.3,3,my
111,15,4,5,1,0,1,0.3685676922592645,0.2564102564102564,0.47058823529411764,0.17647058823529413,0.47140452079103157,0.9192751235584844,0.0,,,1,0,0.48648648648648596,1.0,0.08072487644151564,0.3,3,my
112,16,4,5,1,1,1,0.41160781860957224,0.20512820512820512,0.11764705882352941,0.7058823529411765,0.7453559924999296,0.37561779242174664,0.6458987422074655,,,1,1,0.5540540540540562,0.3600000000000004,0.6243822075782535,0.3,3,my
113,17,4,5,1,0,1,0.2824959933868643,0.358974358974359,0.47058823529411764,0.17647058823529413,0.47140452079103157,0.40362438220757807,0.0,,,1,0,0.5743243243243272,0.4,0.596375617792422,0.3,3,my
114,18,4,5,1,1,1,0.36855948058417926,0.38461538461538464,0.11764705882352941,0.8235294117647058,0.852347186594598,0.5283457699389477,0.3815602643018762,,,1,1,0.5,0.5294117647058669,0.47165423006105245,0.3,3,my
115,19,4,2,1,0,0,0.5121618329553689,0.20512820512820512,0.29411764705882354,0.5882352941176471,0.41344911529736184,0.9621087314662274,0.0,,,1,1,0.31081081081080997,1.0,0.03789126853377261,0.3,3,my
116,20,4,2,1,0,1,0.38297918203504505,0.28205128205128205,0.11764705882352941,0.7647058823529411,0.7952852522702986,0.7347611202635911,0.0,,,1,0,0.5675675675675702,0.8,0.265238879736409,0.3,3,my
117,21,4,2,1,0,0,0.15327981145993946,0.23076923076923078,0.11764705882352941,0.7647058823529411,0.7952852522702986,0.3574958813838543,0.0,,,1,1,0.7635135135135173,0.4,0.6425041186161459,0.3,3,my
118,22,4,2,2,1,1,0.45467223783200883,0.4358974358974359,0.7647058823529411,0.17647058823529413,0.5919690451597532,0.7779415590045938,0.3885294914057465,,,1,1,0.28378378378378827,0.7684210526316008,0.22205844099540628,0.6,3,my
119,23,4,5,2,0,0,0.3685605070435646,0.2564102564102564,0.11764705882352941,0.23529411764705882,0.7453559924999296,0.5683690280065895,0.0,,,1,1,0.5743243243243272,0.6,0.4316309719934106,0.6,3,my
120,24,4,5,1,1,1,0.2106955015075263,0.20512820512820512,0.8823529411764706,0.11764705882352941,0.7844645405527358,0.6194398682042831,0.19776529298921813,,,1,1,0.7702702702702743,0.7200000000000008,0.380560131795717,0.3,3,my
121,25,4,2,1,1,1,0.0002107663272051393,0.3076923076923077,0.11764705882352941,0.23529411764705882,0.7453559924999296,0.17745351847493562,0.5386185014552419,,,1,1,0.7297297297297322,0.17142857142860066,0.8225464815250645,0.3,3,my
122,26,4,2,2,1,1,0.25410789046172955,0.358974358974359,0.17647058823529413,0.23529411764705882,0.6666666666666673,0.39332784184513986,0.5499999999999999,,,1,1,0.5743243243243272,0.3875,0.6066721581548603,0.6,3,my
123,27,4,2,2,0,0,0.8566190207030019,0.5128205128205128,0.47058823529411764,0.7058823529411765,0.3811812499312439,0.08896210873146673,0.0,,,1,1,0.513513513513514,0.0,0.9110378912685334,0.6,3,my
124,28,4,5,2,0,1,0.42604976001379624,0.5384615384615384,0.5294117647058824,0.6470588235294118,0.27735009811261474,0.2553542009884683,0.0,,,1,0,0.506756756756757,0.2,0.7446457990115318,0.6,3,my
125,29,4,2,1,1,1,0.08190495807255567,0.3333333333333333,0.7647058823529411,0.058823529411764705,0.7453559924999296,0.8599670510708398,0.15856499343441874,,,1,1,0.5945945945945982,0.9600000000000004,0.14003294892916032,0.3,3,my
126,30,4,5,2,1,1,0.0002966467624786602,0.38461538461538464,0.11764705882352941,0.17647058823529413,0.7952852522702986,0.3790095939529026,0.6919707576276357,,,1,1,0.317567567567567,0.29411764705880045,0.6209904060470975,0.6,3,my
127,31,4,2,2,0,1,0.4116167145909144,0.358974358974359,0.23529411764705882,0.11764705882352941,0.7220578379655767,0.5766062602965402,0.0,,,1,0,0.5405405405405421,0.6,0.42339373970346,0.6,3,my
128,32,4,2,1,1,1,0.31120400948722265,0.4358974358974359,0.4117647058823529,0.17647058823529413,0.4978586625371179,0.6360010404924983,0.4704110433520902,,,1,1,0.43918918918919325,0.6421052631578675,0.3639989595075018,0.3,3,my
129,1,5,2,2,1,1,0.18205933756417067,0.358974358974359,0.23529411764705882,0.17647058823529413,0.6537204504606143,0.2759472817133447,0.1914854215512677,,,1,1,0.506756756756757,0.225,0.7240527182866554,0.6,3,my
130,2,5,2,1,1,1,0.009714069473508455,0.5641025641025641,0.11764705882352941,0.7058823529411765,0.7453559924999296,0.18506315211422342,0.4212931553031851,,,1,1,0.513513513513514,0.11666666666666667,0.8149368478857767,0.3,3,my
131,3,5,5,2,0,1,0.18249421419059544,0.38461538461538464,0.5294117647058824,0.29411764705882354,0.27735009811261474,0.03953871499176269,0.0,,,1,0,0.7162162162162181,0.0,0.9604612850082374,0.6,3,my
132,4,5,5,2,1,1,0.2539354452849242,0.6666666666666666,0.35294117647058826,0.7058823529411765,0.4622501635210246,0.6773358437279365,0.5320255129074917,,,1,1,0.344594594594595,0.6642857142857338,0.3226641562720636,0.6,3,my
133,5,5,5,1,1,1,0.32552722375582843,0.28205128205128205,0.17647058823529413,0.5882352941176471,0.5847053462046867,0.06919275123558422,0.0,,,1,1,0.5945945945945982,0.0,0.9308072487644159,0.3,3,my
134,6,5,5,1,0,1,0.19633259747600498,0.358974358974359,0.8823529411764706,0.17647058823529413,0.7220578379655767,0.5107084019769362,0.0,,,1,0,0.81081081081081,0.6,0.4892915980230638,0.3,3,my
135,7,5,5,2,0,1,0.5121895473587835,0.3333333333333333,0.17647058823529413,0.17647058823529413,0.7220578379655767,0.2553542009884683,0.0,,,1,0,0.506756756756757,0.2,0.7446457990115318,0.6,3,my
136,8,5,2,1,0,1,0.4118233750805775,0.6923076923076923,0.8235294117647058,0.6470588235294118,0.5390716933750936,0.12520593080724868,0.0,,,1,0,0.3648648648648661,0.0,0.8747940691927514,0.3,3,my
137,9,5,5,1,1,1,0.02438080548320919,0.3076923076923077,0.23529411764705882,0.5294117647058824,0.47140452079103157,0.5799011532125202,0.39742762605123155,,,1,1,0.5270270270270281,0.6,0.4200988467874798,0.3,3,my
138,10,5,5,2,1,0,0.12485372953753217,0.1282051282051282,0.8235294117647058,0.11764705882352941,0.7220578379655767,0.26170863732642874,0.43424811867344704,,,1,0,0.7702702702702743,0.2857142857142662,0.7382913626735714,0.6,3,my
139,11,5,2,2,0,0,0.397388276738925,0.5897435897435898,0.8235294117647058,0.6470588235294118,0.5390716933750936,0.8566721581548595,0.0,,,1,1,0.7432432432432462,1.0,0.14332784184514052,0.6,3,my
140,12,5,2,1,0,0,0.41205809212678224,0.4358974358974359,0.23529411764705882,0.8235294117647058,0.7220578379655767,0.10543657331136674,0.0,,,1,1,0.4459459459459503,0.0,0.8945634266886333,0.3,3,my
141,13,5,5,2,1,1,0.5264518583705022,0.20512820512820512,0.4117647058823529,0.17647058823529413,0.4978586625371179,0.21581548599670553,0.8073734277593315,,,1,1,0.668918918918919,0.2,0.7841845140032946,0.6,3,my
142,14,5,5,2,0,1,0.3829186209312863,0.41025641025641024,0.35294117647058826,0.5294117647058824,0.29235267310234336,0.5140032948929151,0.0,,,1,0,0.7972972972973024,0.6,0.48599670510708504,0.6,3,my
143,15,5,5,1,1,1,0.00019365867077614755,0.6153846153846154,0.29411764705882354,0.7647058823529411,0.5919690451597532,0.5047522493980472,0.5902454943409091,,,1,1,0.2635135135135172,0.4307692307691999,0.49524775060195286,0.3,3,my
144,16,5,2,1,1,0,0.4691145213893612,0.2564102564102564,0.17647058823529413,0.11764705882352941,0.7844645405527358,0.2943437671608999,0.14907119849998546,,,1,0,0.4594594594594643,0.23333333333333334,0.7056562328391002,0.3,3,my
145,17,5,2,2,0,0,0.26823949897833044,0.38461538461538464,0.8823529411764706,0.23529411764705882,0.6666666666666673,0.03130148270181219,0.0,,,1,1,0.7500000000000032,0.0,0.9686985172981878,0.6,3,my
146,18,5,2,2,1,1,0.00021624077726242275,0.46153846153846156,0.29411764705882354,0.11764705882352941,0.6666666666666673,0.217462932454694,0.1924906012743147,,,1,1,0.25675675675676024,0.07999999999999924,0.782537067545306,0.6,3,my
147,19,5,5,2,0,0,0.3685611913498214,0.41025641025641024,0.17647058823529413,0.23529411764705882,0.6666666666666673,0.34925864909390375,0.0,,,1,1,0.7972972972973024,0.4,0.6507413509060963,0.6,3,my
148,20,5,2,2,0,0,0.05283015381836049,0.3333333333333333,0.35294117647058826,0.11764705882352941,0.6201736729460419,0.03624382207578253,0.0,,,1,1,0.7297297297297322,0.0,0.9637561779242176,0.6,3,my
149,21,5,2,1,0,0,0.15342146285517144,0.46153846153846156,0.17647058823529413,0.7058823529411765,0.6666666666666673,0.7166392092257003,0.0,,,1,1,0.6418918918918909,0.8,0.2833607907742997,0.3,3,my
150,22,5,2,2,1,1,0.0002200044616767901,0.15384615384615385,0.11764705882352941,0.17647058823529413,0.7952852522702986,0.4200988467874797,0.8188261051506552,,,1,1,0.506756756756757,0.4,0.5799011532125203,0.6,3,my
151,23,5,5,1,0,0,0.282645856457183,0.48717948717948717,0.7058823529411765,0.11764705882352941,0.6201736729460419,0.5485996705107087,0.0,,,1,1,0.6554054054054049,0.6,0.45140032948929143,0.3,3,my
152,24,5,5,1,1,1,0.3829141729406153,0.3333333333333333,0.11764705882352941,0.7647058823529411,0.7952852522702986,0.5194947830862167,0.7012007841428443,,,1,1,0.7297297297297322,0.5866666666666674,0.48050521691378345,0.3,3,my
153,25,5,5,2,1,1,0.15335474299509955,0.28205128205128205,0.47058823529411764,0.11764705882352941,0.5623515948579827,0.2806995311113925,0.5817744738827397,,,1,1,0.506756756756757,0.23076923076919986,0.7193004688886075,0.6,3,my
154,26,5,2,1,1,1,0.00019844881457627624,0.46153846153846156,0.29411764705882354,0.7647058823529411,0.5919690451597532,0.6836902800658987,0.5472739459629193,,,1,1,0.506756756756757,0.7200000000000008,0.31630971993410145,0.3,3,my
155,27,5,2,1,0,0,0.12467615206379928,0.41025641025641024,0.35294117647058826,0.11764705882352941,0.6201736729460419,0.8995057660626025,0.0,,,1,1,0.5675675675675702,1.0,0.10049423393739754,0.3,3,my
156,28,5,5,1,0,0,0.00021726723664815538,0.23076923076923078,0.35294117647058826,0.17647058823529413,0.5390716933750936,0.2899505766062601,0.0,,,1,1,0.3648648648648661,0.2,0.71004942339374,0.3,3,my
157,29,5,2,1,1,0,0.32569043079816173,0.6923076923076923,0.7058823529411765,0.6470588235294118,0.3922322702763679,0.2950065329773326,0.45097959423578976,,,1,0,0.7635135135135173,0.3241379310344674,0.7049934670226675,0.3,3,my
158,30,5,5,1,0,1,0.2538242455181357,0.38461538461538464,0.23529411764705882,0.11764705882352941,0.7220578379655767,0.7940691927512358,0.0,,,1,0,0.32432432432432395,0.8,0.20593080724876434,0.3,3,my
159,31,5,2,2,1,0,0.024286371219721218,0.5128205128205128,0.17647058823529413,0.23529411764705882,0.6666666666666673,0.33712745244870385,0.3023715784073821,,,1,0,0.6013513513513552,0.32727272727273277,0.6628725475512962,0.6,3,my
160,32,5,2,2,0,0,0.196341835610477,0.3076923076923077,0.11764705882352941,0.17647058823529413,0.7952852522702986,0.8995057660626025,0.0,,,1,1,0.5675675675675702,1.0,0.10049423393739754,0.6,3,my
1,1,1,5,1,1,1,0.2825315773122372,0.5641025641025641,0.11764705882352941,0.17647058823529413,0.7952852522702986,0.4038989566172425,0.5811241812295044,,,1,1,0.7702702702702743,0.4583333333333333,0.5961010433827576,0.3,4,my
2,2,1,2,1,0,0,0.45467189567888033,0.5641025641025641,0.8235294117647058,0.7058823529411765,0.5919690451597532,0.86326194398682,0.0,,,1,1,0.7162162162162181,1.0,0.13673805601318006,0.3,4,my
3,3,1,2,1,1,1,0.00020152819273348818,0.5128205128205128,0.8235294117647058,0.17647058823529413,0.6537204504606143,0.7197843342818623,0.5656854249492385,,,1,1,0.5675675675675702,0.7818181818182003,0.2802156657181377,0.3,4,my
4,4,1,2,2,0,0,0.12462927708518387,0.4358974358974359,0.17647058823529413,0.7647058823529411,0.7220578379655767,0.12026359143327833,0.0,,,1,1,0.38513513513513714,0.0,0.8797364085667218,0.9,4,my
