"participantID","date","trialNo","blockNo","cutNo","expCond","control","keyCode","shownImgID","shownFoilID","shownSegID","reactionTime","segSize","segCenterX","segCenterY","segCentDist","intDiff","intStd","segNcut","segStab","leaf","correct","meanImgInt","meanSegInt","deltaInt","intOrder","expTime","presentedImgs","segIntensity","segPos","intVals","intDelta","nmcPars","normed_cutNo","normed_reactionTime","normed_segSize","normed_segCenterX","normed_segCenterY","normed_segCentDist","normed_intDiff","normed_intStd","normed_meanImgInt","normed_meanSegInt","normed_deltaInt","normed_intOrder","effortAll","effortUp","avgCrossCorr","trialId","pHat"
"go","08-12-2022",1,"1",3,1,"0","1",89118,0,7,848.48141670227,10,-3.5,-2.5,4.30116263352131,-13.8162312259535,0,1,1,"1",0,203.816231225953,190,13.8162312259535,1,"0.2","[[1 1 1 1 1 2 2 2 2 2]
 [1 1 1 1 2 2 2 2 2 2]
 [6 6 1 2 2 2 2 2 2 4]
 [6 6 6 2 2 2 2 4 4 4]
 [6 6 6 6 2 2 4 4 4 4]
 [6 6 5 5 5 4 4 4 4 4]
 [6 5 5 5 5 4 4 4 3 3]
 [5 5 5 5 5 4 3 3 3 3]
 [5 5 5 5 5 3 3 3 3 3]
 [5 5 5 5 5 3 3 3 3 3]]","[[1 1 1 1 1 2 2 2 2 2]
 [1 1 1 1 2 2 2 2 2 2]
 [6 6 1 2 2 2 2 2 2 4]
 [6 6 6 2 2 2 2 4 4 4]
 [6 6 6 6 2 2 4 4 4 4]
 [6 6 5 5 5 4 4 4 4 4]
 [6 5 5 5 5 4 4 4 3 3]
 [5 5 5 5 5 4 3 3 3 3]
 [5 5 5 5 5 3 3 3 3 3]
 [5 5 5 5 5 3 3 3 3 3]]","[[1 1]
 [2 1]
 [1 2]
 [2 2]
 [1 3]
 [2 3]
 [3 3]
 [1 4]
 [2 4]
 [1 5]]","[190.         195.25343966 200.65213525 206.20010306 211.90147042
 217.76047878]",0.0276496823956,"[1.5   0.004 2.    1.   ]",NA,NA,NA,NA,NA,NA,NA,NA,NA,NA,NA,NA,0.0762515286679561,0.0762515286679561,NA,NA,0.524675806532123
"go","08-12-2022",4,"1",1,1,"0","1",55266,0,2,238.438844680786,22,2.5,-2.5,3.53553390593274,13.1576487321911,0,1,1,"1",0,204.602830043505,217.760478775696,-13.1576487321911,6,"0.2","[[5 5 5 5 5 5 1 1 1 1]
 [5 5 5 5 5 5 1 1 1 1]
 [5 5 5 5 5 5 1 1 1 1]
 [3 3 3 3 3 2 2 1 1 1]
 [3 3 3 3 2 2 2 2 1 1]
 [6 6 6 6 2 2 2 2 4 1]
 [6 6 6 6 2 2 2 4 4 4]
 [6 6 6 6 2 2 4 4 4 4]
 [6 6 6 6 6 2 4 4 4 4]
 [6 6 6 6 6 4 4 4 4 4]]","[[5 5 5 5 5 5 1 1 1 1]
 [5 5 5 5 5 5 1 1 1 1]
 [5 5 5 5 5 5 1 1 1 1]
 [3 3 3 3 3 2 2 1 1 1]
 [3 3 3 3 2 2 2 2 1 1]
 [6 6 6 6 2 2 2 2 4 1]
 [6 6 6 6 2 2 2 4 4 4]
 [6 6 6 6 2 2 4 4 4 4]
 [6 6 6 6 6 2 4 4 4 4]
 [6 6 6 6 6 4 4 4 4 4]]","[[ 6  1]
 [ 7  1]
 [ 8  1]
 [ 9  1]
 [10  1]
 [ 6  2]
 [ 7  2]
 [ 8  2]
 [ 9  2]
 [10  2]
 [ 6  3]
 [ 7  3]
 [ 8  3]
 [ 9  3]
 [10  3]
 [ 6  4]
 [ 7  4]
 [ 8  4]
 [ 9  4]
 [10  4]
 [ 9  5]
 [10  5]]","[190.         195.25343966 200.65213525 206.20010306 211.90147042
 217.76047878]",0.0276496823956,"[1.5   0.004 2.    1.   ]",NA,NA,NA,NA,NA,NA,NA,NA,NA,NA,NA,NA,0.030472568341282,0.0002190931199371,NA,NA,0.711047062029392
"go","08-12-2022",5,"1",1,1,"0","1",90111,0,2,218.430519104004,11,-3.5,2,4.03112887414927,13.8920400387833,0,1,1,"1",0,203.868438736912,217.760478775696,-13.8920400387833,6,"0.2","[[1 1 1 1 6 6 6 6 6 6]
 [1 1 1 1 6 6 6 6 3 3]
 [1 1 1 1 1 6 3 3 3 3]
 [2 2 2 2 2 3 3 3 3 3]
 [2 2 2 2 2 3 3 3 3 3]
 [2 2 2 2 4 4 3 3 3 3]
 [2 4 4 4 4 5 5 5 5 5]
 [4 4 4 4 4 5 5 5 5 5]
 [4 4 4 4 5 5 5 5 5 5]
 [4 4 4 4 5 5 5 5 5 5]]","[[1 1 1 1 6 6 6 6 6 6]
 [1 1 1 1 6 6 6 6 3 3]
 [1 1 1 1 1 6 3 3 3 3]
 [2 2 2 2 2 3 3 3 3 3]
 [2 2 2 2 2 3 3 3 3 3]
 [2 2 2 2 4 4 3 3 3 3]
 [2 4 4 4 4 5 5 5 5 5]
 [4 4 4 4 4 5 5 5 5 5]
 [4 4 4 4 5 5 5 5 5 5]
 [4 4 4 4 5 5 5 5 5 5]]","[[ 1  5]
 [ 2  5]
 [ 1  6]
 [ 2  6]
 [ 3  6]
 [ 1  7]
 [ 2  7]
 [ 1  8]
 [ 2  8]
 [ 1  9]
 [ 1 10]]","[190.         195.25343966 200.65213525 206.20010306 211.90147042
 217.76047878]",0.0276496823956,"[1.5   0.004 2.    1.   ]",NA,NA,NA,NA,NA,NA,NA,NA,NA,NA,NA,NA,0.0518303811225931,0.0002198147561397,NA,NA,0.681565763906704
"go","08-12-2022",6,"1",2,1,"0","0",65203,0,4,228.397846221924,19,0,2,2,-13.4713420748561,0,1,1,"1",1,203.471342074856,190,13.4713420748561,1,"0.2","[[2 2 2 2 2 3 3 3 3 3]
 [2 2 2 2 2 3 3 3 3 3]
 [2 2 2 2 6 6 3 3 3 3]
 [2 2 6 6 6 6 1 1 1 3]
 [6 6 6 6 6 1 1 1 1 1]
 [6 6 6 6 6 1 1 1 1 1]
 [5 5 5 5 1 1 1 1 1 1]
 [5 5 5 5 5 4 4 4 4 4]
 [5 5 5 5 5 4 4 4 4 4]
 [5 5 5 5 5 4 4 4 4 4]]","[[2 2 2 2 2 3 3 3 3 3]
 [2 2 2 2 2 3 3 3 3 3]
 [2 2 2 2 6 6 3 3 3 3]
 [2 2 6 6 6 6 1 1 1 3]
 [6 6 6 6 6 1 1 1 1 1]
 [6 6 6 6 6 1 1 1 1 1]
 [5 5 5 5 1 1 1 1 1 1]
 [5 5 5 5 5 4 4 4 4 4]
 [5 5 5 5 5 4 4 4 4 4]
 [5 5 5 5 5 4 4 4 4 4]]","[[ 7  5]
 [ 5  6]
 [ 6  6]
 [ 7  6]
 [ 4  7]
 [ 5  7]
 [ 6  7]
 [ 7  7]
 [ 4  8]
 [ 5  8]
 [ 6  8]
 [ 7  8]
 [ 4  9]
 [ 5  9]
 [ 6  9]
 [ 7  9]
 [ 5 10]
 [ 6 10]
 [ 7 10]]","[190.         195.25343966 200.65213525 206.20010306 211.90147042
 217.76047878]",0.0276496823956,"[1.5   0.004 2.    1.   ]",NA,NA,NA,NA,NA,NA,NA,NA,NA,NA,NA,NA,0.0337413410743722,0.0101246467507743,NA,NA,0.651986206268921
"go","08-12-2022",7,"1",1,1,"0","0",8821,0,2,128.499031066895,19,-3,-2,3.60555127546399,-13.0584782500879,0,1,1,"1",1,203.058478250088,190,13.0584782500879,1,"0.2","[[1 1 1 1 1 1 2 2 2 2]
 [1 1 1 1 1 1 2 2 2 2]
 [1 1 1 1 1 3 3 2 2 2]
 [1 1 5 5 3 3 3 3 3 2]
 [5 5 5 5 5 3 3 3 3 3]
 [6 5 5 5 5 3 3 3 3 3]
 [6 6 5 5 5 5 3 3 3 3]
 [6 6 6 5 4 4 4 4 4 4]
 [6 6 6 6 4 4 4 4 4 4]
 [6 6 6 4 4 4 4 4 4 4]]","[[1 1 1 1 1 1 2 2 2 2]
 [1 1 1 1 1 1 2 2 2 2]
 [1 1 1 1 1 3 3 2 2 2]
 [1 1 5 5 3 3 3 3 3 2]
 [5 5 5 5 5 3 3 3 3 3]
 [6 5 5 5 5 3 3 3 3 3]
 [6 6 5 5 5 5 3 3 3 3]
 [6 6 6 5 4 4 4 4 4 4]
 [6 6 6 6 4 4 4 4 4 4]
 [6 6 6 4 4 4 4 4 4 4]]","[[1 1]
 [2 1]
 [3 1]
 [4 1]
 [1 2]
 [2 2]
 [3 2]
 [4 2]
 [1 3]
 [2 3]
 [3 3]
 [1 4]
 [2 4]
 [3 4]
 [1 5]
 [2 5]
 [3 5]
 [1 6]
 [2 6]]","[190.         195.25343966 200.65213525 206.20010306 211.90147042
 217.76047878]",0.0276496823956,"[1.5   0.004 2.    1.   ]",NA,NA,NA,NA,NA,NA,NA,NA,NA,NA,NA,NA,0.0714963650853391,0.0040313563905701,NA,NA,0.653062659464754
"go","08-12-2022",9,"1",1,2,"0","0",97752,0,2,348.307847976685,20,3,2,3.60555127546399,14.1671882822011,2.9160058604849e-14,1,1,"1",1,203.593290493495,217.760478775696,-14.1671882822011,6,"1","[[5 5 5 5 5 5 5 4 4 4]
 [5 5 5 5 5 4 4 4 4 1]
 [5 5 5 2 2 4 4 4 1 1]
 [2 2 2 2 2 4 4 1 1 1]
 [2 2 2 2 2 4 1 1 1 1]
 [2 2 2 2 2 1 1 1 1 1]
 [3 3 3 2 6 6 6 1 1 1]
 [3 3 3 3 6 6 6 6 6 6]
 [3 3 3 3 6 6 6 6 6 6]
 [3 3 3 3 3 6 6 6 6 6]]","[[5 5 5 5 5 5 5 4 4 4]
 [5 5 5 5 5 4 4 4 4 1]
 [5 5 5 2 2 4 4 4 1 1]
 [2 2 2 2 2 4 4 1 1 1]
 [2 2 2 2 2 4 1 1 1 1]
 [2 2 2 2 2 1 1 1 1 1]
 [3 3 3 2 6 6 6 1 1 1]
 [3 3 3 3 6 6 6 6 6 6]
 [3 3 3 3 6 6 6 6 6 6]
 [3 3 3 3 3 6 6 6 6 6]]","[[ 7  5]
 [ 8  5]
 [ 9  5]
 [ 7  6]
 [ 8  6]
 [ 9  6]
 [10  6]
 [ 7  7]
 [ 8  7]
 [ 9  7]
 [10  7]
 [ 8  8]
 [ 9  8]
 [10  8]
 [ 8  9]
 [ 9  9]
 [10  9]
 [ 8 10]
 [ 9 10]
 [10 10]]","[190.         195.25343966 200.65213525 206.20010306 211.90147042
 217.76047878]",0.0276496823956,"[1.5   0.004 2.    1.   ]",NA,NA,NA,NA,NA,NA,NA,NA,NA,NA,NA,NA,0.039304554172924,7.09429680265438e-05,NA,NA,0.780033128093132
"go","08-12-2022",12,"1",2,2,"0","0",85343,0,4,218.390941619873,18,-2.5,2.5,3.53553390593274,0.844158827593816,5.84913954557495e-14,1,1,"1",1,205.355944232298,206.200103059892,-0.844158827593816,4,"1","[[2 2 2 2 2 2 4 4 4 4]
 [2 2 2 2 2 4 4 4 4 4]
 [2 2 2 2 1 1 4 4 4 4]
 [2 2 1 1 1 1 4 4 4 4]
 [3 3 1 1 1 1 6 6 6 4]
 [3 3 3 3 1 1 6 6 6 6]
 [5 3 3 3 3 3 6 6 6 6]
 [5 5 5 5 5 3 6 6 6 6]
 [5 5 5 5 5 5 6 6 6 6]
 [5 5 5 5 5 5 5 6 6 6]]","[[2 2 2 2 2 2 4 4 4 4]
 [2 2 2 2 2 4 4 4 4 4]
 [2 2 2 2 1 1 4 4 4 4]
 [2 2 1 1 1 1 4 4 4 4]
 [3 3 1 1 1 1 6 6 6 4]
 [3 3 3 3 1 1 6 6 6 6]
 [5 3 3 3 3 3 6 6 6 6]
 [5 5 5 5 5 3 6 6 6 6]
 [5 5 5 5 5 5 6 6 6 6]
 [5 5 5 5 5 5 5 6 6 6]]","[[ 2  6]
 [ 1  7]
 [ 2  7]
 [ 3  7]
 [ 4  7]
 [ 1  8]
 [ 2  8]
 [ 3  8]
 [ 4  8]
 [ 1  9]
 [ 2  9]
 [ 3  9]
 [ 4  9]
 [ 1 10]
 [ 2 10]
 [ 3 10]
 [ 4 10]
 [ 5 10]]","[190.         195.25343966 200.65213525 206.20010306 211.90147042
 217.76047878]",0.0276496823956,"[1.5   0.004 2.    1.   ]",NA,NA,NA,NA,NA,NA,NA,NA,NA,NA,NA,NA,0.0432805539068994,0.0120536539134804,NA,NA,0.741992418046521
"go","08-12-2022",16,"1",5,1,"0","0",80383,0,10,208.468198776245,18,2.5,-2.5,3.53553390593274,13.6424579250648,5.84913954557495e-14,1,1,"1",1,204.118020850631,217.760478775696,-13.6424579250648,6,"0.2","[[1 1 1 1 1 2 2 2 2 2]
 [1 1 1 1 1 2 2 2 2 2]
 [1 1 1 1 1 2 2 2 4 4]
 [5 5 5 5 5 4 4 4 4 4]
 [5 5 5 5 5 4 4 4 4 4]
 [5 5 5 5 6 4 4 4 4 4]
 [5 6 6 6 6 3 3 3 3 4]
 [6 6 6 6 6 3 3 3 3 3]
 [6 6 6 6 3 3 3 3 3 3]
 [6 6 6 6 3 3 3 3 3 3]]","[[1 1 1 1 1 2 2 2 2 2]
 [1 1 1 1 1 2 2 2 2 2]
 [1 1 1 1 1 2 2 2 4 4]
 [5 5 5 5 5 4 4 4 4 4]
 [5 5 5 5 5 4 4 4 4 4]
 [5 5 5 5 6 4 4 4 4 4]
 [5 6 6 6 6 3 3 3 3 4]
 [6 6 6 6 6 3 3 3 3 3]
 [6 6 6 6 3 3 3 3 3 3]
 [6 6 6 6 3 3 3 3 3 3]]","[[ 8  1]
 [ 9  1]
 [10  1]
 [ 7  2]
 [ 8  2]
 [ 9  2]
 [10  2]
 [ 7  3]
 [ 8  3]
 [ 9  3]
 [10  3]
 [ 7  4]
 [ 8  4]
 [ 9  4]
 [10  4]
 [ 6  5]
 [ 7  5]
 [ 8  5]]","[190.         195.25343966 200.65213525 206.20010306 211.90147042
 217.76047878]",0.0276496823956,"[1.5   0.004 2.    1.   ]",NA,NA,NA,NA,NA,NA,NA,NA,NA,NA,NA,NA,0.0618586254916665,0.0618586254916665,NA,NA,0.423139923528813
"go","08-12-2022",17,"1",2,2,"0","0",59065,0,4,248.45814704895,16,-3,-2.5,3.90512483795333,-7.37604806623375,5.87076305571739e-14,1,1,"1",1,202.629487721398,195.253439655164,7.37604806623375,2,"1","[[2 2 2 2 2 5 5 5 5 5]
 [2 2 2 2 2 5 5 5 5 5]
 [2 2 2 2 2 5 5 5 5 5]
 [6 6 6 6 2 5 3 3 3 3]
 [6 6 6 6 6 3 3 3 3 3]
 [6 6 6 1 1 3 3 3 3 3]
 [6 1 1 1 1 4 4 4 4 3]
 [1 1 1 1 1 4 4 4 4 4]
 [1 1 1 1 1 4 4 4 4 4]
 [1 1 1 1 1 4 4 4 4 4]]","[[2 2 2 2 2 5 5 5 5 5]
 [2 2 2 2 2 5 5 5 5 5]
 [2 2 2 2 2 5 5 5 5 5]
 [6 6 6 6 2 5 3 3 3 3]
 [6 6 6 6 6 3 3 3 3 3]
 [6 6 6 1 1 3 3 3 3 3]
 [6 1 1 1 1 4 4 4 4 3]
 [1 1 1 1 1 4 4 4 4 4]
 [1 1 1 1 1 4 4 4 4 4]
 [1 1 1 1 1 4 4 4 4 4]]","[[1 1]
 [2 1]
 [3 1]
 [1 2]
 [2 2]
 [3 2]
 [1 3]
 [2 3]
 [3 3]
 [1 4]
 [2 4]
 [3 4]
 [1 5]
 [2 5]
 [3 5]
 [4 5]]","[190.         195.25343966 200.65213525 206.20010306 211.90147042
 217.76047878]",0.0276496823956,"[1.5   0.004 2.    1.   ]",NA,NA,NA,NA,NA,NA,NA,NA,NA,NA,NA,NA,0.0262646480655184,0.0013669647324238,NA,NA,0.70626532615774
"go","08-12-2022",21,"1",3,1,"0","1",99506,0,6,228.3935546875,11,-3.5,-2,4.03112887414927,-14.2186918027903,0,1,1,"1",0,204.21869180279,190,14.2186918027903,1,"0.2","[[1 1 1 1 1 1 2 2 2 2]
 [5 5 1 1 1 2 2 2 2 2]
 [5 5 5 1 1 2 2 2 2 2]
 [5 5 5 5 5 2 2 2 2 6]
 [5 5 5 5 5 6 6 6 6 6]
 [3 3 3 3 6 6 6 6 6 6]
 [3 3 3 3 3 4 6 6 6 6]
 [3 3 3 3 4 4 4 4 6 6]
 [3 3 3 3 4 4 4 4 4 4]
 [3 3 3 3 4 4 4 4 4 4]]","[[1 1 1 1 1 1 2 2 2 2]
 [5 5 1 1 1 2 2 2 2 2]
 [5 5 5 1 1 2 2 2 2 2]
 [5 5 5 5 5 2 2 2 2 6]
 [5 5 5 5 5 6 6 6 6 6]
 [3 3 3 3 6 6 6 6 6 6]
 [3 3 3 3 3 4 6 6 6 6]
 [3 3 3 3 4 4 4 4 6 6]
 [3 3 3 3 4 4 4 4 4 4]
 [3 3 3 3 4 4 4 4 4 4]]","[[1 1]
 [1 2]
 [1 3]
 [2 3]
 [1 4]
 [2 4]
 [3 4]
 [1 5]
 [2 5]
 [3 5]
 [1 6]]","[190.         195.25343966 200.65213525 206.20010306 211.90147042
 217.76047878]",0.0276496823956,"[1.5   0.004 2.    1.   ]",NA,NA,NA,NA,NA,NA,NA,NA,NA,NA,NA,NA,0.0448524556551922,0.0448524556551922,NA,NA,0.575387254107518
"go","08-12-2022",23,"1",4,2,"0","0",84421,0,8,738.461971282959,12,-1,1,1.4142135623731,-9.7909073677921,2.96855073353921e-14,1,1,"1",1,205.044347022956,195.253439655164,9.7909073677921,2,"1","[[1 1 1 1 1 1 3 3 3 3]
 [1 1 1 1 1 1 3 3 3 3]
 [5 5 1 1 1 2 3 3 3 3]
 [5 5 5 1 2 2 2 3 3 3]
 [5 5 5 4 2 2 2 2 3 3]
 [4 4 4 4 2 2 2 2 6 6]
 [4 4 4 4 6 6 6 6 6 6]
 [4 4 4 4 6 6 6 6 6 6]
 [4 4 4 6 6 6 6 6 6 6]
 [4 4 4 6 6 6 6 6 6 6]]","[[1 1 1 1 1 1 3 3 3 3]
 [1 1 1 1 1 1 3 3 3 3]
 [5 5 1 1 1 2 3 3 3 3]
 [5 5 5 1 2 2 2 3 3 3]
 [5 5 5 4 2 2 2 2 3 3]
 [4 4 4 4 2 2 2 2 6 6]
 [4 4 4 4 6 6 6 6 6 6]
 [4 4 4 4 6 6 6 6 6 6]
 [4 4 4 6 6 6 6 6 6 6]
 [4 4 4 6 6 6 6 6 6 6]]","[[4 5]
 [5 5]
 [6 5]
 [3 6]
 [4 6]
 [5 6]
 [6 6]
 [4 7]
 [5 7]
 [6 7]
 [5 8]
 [6 8]]","[190.         195.25343966 200.65213525 206.20010306 211.90147042
 217.76047878]",0.0276496823956,"[1.5   0.004 2.    1.   ]",NA,NA,NA,NA,NA,NA,NA,NA,NA,NA,NA,NA,0.0591360781164054,0.0591360781164054,NA,NA,0.672714834752762
"go","08-12-2022",25,"1",2,1,"0","0",47563,0,4,308.474063873291,10,-1,1.5,1.80277563773199,15.416227939033,0,1,1,"1",1,202.344250836663,217.760478775696,-15.416227939033,6,"0.2","[[2 2 2 2 2 2 3 3 3 3]
 [2 2 2 2 2 2 3 3 3 3]
 [2 2 2 2 2 6 6 3 3 3]
 [1 1 1 1 1 6 6 6 3 3]
 [1 1 1 1 1 6 6 6 3 3]
 [1 1 1 1 1 1 6 6 4 4]
 [5 5 1 1 1 1 4 4 4 4]
 [5 5 5 5 5 1 4 4 4 4]
 [5 5 5 5 5 5 4 4 4 4]
 [5 5 5 5 5 5 4 4 4 4]]","[[2 2 2 2 2 2 3 3 3 3]
 [2 2 2 2 2 2 3 3 3 3]
 [2 2 2 2 2 6 6 3 3 3]
 [1 1 1 1 1 6 6 6 3 3]
 [1 1 1 1 1 6 6 6 3 3]
 [1 1 1 1 1 1 6 6 4 4]
 [5 5 1 1 1 1 4 4 4 4]
 [5 5 5 5 5 1 4 4 4 4]
 [5 5 5 5 5 5 4 4 4 4]
 [5 5 5 5 5 5 4 4 4 4]]","[[3 6]
 [4 6]
 [5 6]
 [3 7]
 [4 7]
 [5 7]
 [6 7]
 [4 8]
 [5 8]
 [6 8]]","[190.         195.25343966 200.65213525 206.20010306 211.90147042
 217.76047878]",0.0276496823956,"[1.5   0.004 2.    1.   ]",NA,NA,NA,NA,NA,NA,NA,NA,NA,NA,NA,NA,0.0333700976121823,0.0085347279381415,NA,NA,0.652536183491825
"go","08-12-2022",26,"1",3,1,"0","0",67528,0,7,228.387355804443,20,-2.5,-3,3.90512483795333,8.70803867994272,1.16640234419396e-13,1,1,"1",1,203.193431739495,211.901470419438,-8.70803867994272,5,"0.2","[[5 5 5 5 1 1 3 3 3 3]
 [5 5 5 5 1 1 3 3 3 3]
 [5 5 5 5 1 1 1 3 3 3]
 [5 5 5 5 1 1 6 6 3 3]
 [5 5 5 5 1 6 6 6 4 4]
 [2 2 2 2 6 6 6 4 4 4]
 [2 2 2 2 2 6 4 4 4 4]
 [2 2 2 2 2 4 4 4 4 4]
 [2 2 2 2 2 2 4 4 4 4]
 [2 2 2 2 2 2 4 4 4 4]]","[[5 5 5 5 1 1 3 3 3 3]
 [5 5 5 5 1 1 3 3 3 3]
 [5 5 5 5 1 1 1 3 3 3]
 [5 5 5 5 1 1 6 6 3 3]
 [5 5 5 5 1 6 6 6 4 4]
 [2 2 2 2 6 6 6 4 4 4]
 [2 2 2 2 2 6 4 4 4 4]
 [2 2 2 2 2 4 4 4 4 4]
 [2 2 2 2 2 2 4 4 4 4]
 [2 2 2 2 2 2 4 4 4 4]]","[[1 1]
 [2 1]
 [3 1]
 [4 1]
 [5 1]
 [1 2]
 [2 2]
 [3 2]
 [4 2]
 [5 2]
 [1 3]
 [2 3]
 [3 3]
 [4 3]
 [5 3]
 [1 4]
 [2 4]
 [3 4]
 [4 4]
 [5 4]]","[190.         195.25343966 200.65213525 206.20010306 211.90147042
 217.76047878]",0.0276496823956,"[1.5   0.004 2.    1.   ]",NA,NA,NA,NA,NA,NA,NA,NA,NA,NA,NA,NA,0.0126124935998621,0.0126124935998621,NA,NA,0.625846790548854
"go","08-12-2022",28,"1",3,2,"0","0",7781,0,6,218.454360961914,14,-2.5,-3,3.90512483795333,-13.9680396407362,0,1,1,"1",1,203.968039640736,190,13.9680396407362,1,"1","[[1 1 4 4 4 4 6 6 6 6]
 [1 1 4 4 4 4 6 6 6 6]
 [1 1 1 4 4 4 6 6 6 6]
 [1 1 1 4 4 4 3 6 6 6]
 [1 1 1 1 4 3 3 3 3 6]
 [2 2 2 2 2 5 5 5 3 3]
 [2 2 2 2 2 5 5 5 5 5]
 [2 2 2 2 2 5 5 5 5 5]
 [2 2 2 2 2 5 5 5 5 5]
 [2 2 2 2 2 5 5 5 5 5]]","[[1 1 4 4 4 4 6 6 6 6]
 [1 1 4 4 4 4 6 6 6 6]
 [1 1 1 4 4 4 6 6 6 6]
 [1 1 1 4 4 4 3 6 6 6]
 [1 1 1 1 4 3 3 3 3 6]
 [2 2 2 2 2 5 5 5 3 3]
 [2 2 2 2 2 5 5 5 5 5]
 [2 2 2 2 2 5 5 5 5 5]
 [2 2 2 2 2 5 5 5 5 5]
 [2 2 2 2 2 5 5 5 5 5]]","[[1 1]
 [2 1]
 [3 1]
 [4 1]
 [5 1]
 [1 2]
 [2 2]
 [3 2]
 [4 2]
 [5 2]
 [3 3]
 [4 3]
 [5 3]
 [5 4]]","[190.         195.25343966 200.65213525 206.20010306 211.90147042
 217.76047878]",0.0276496823956,"[1.5   0.004 2.    1.   ]",NA,NA,NA,NA,NA,NA,NA,NA,NA,NA,NA,NA,0.0429822300367178,0.0206097077551024,NA,NA,0.690373835317162
"go","08-12-2022",29,"1",4,1,"0","0",82302,0,9,278.452634811401,24,-3,-1.5,3.35410196624968,12.7495085234708,2.90329989215507e-14,1,1,"1",1,205.010970252225,217.760478775696,-12.7495085234708,6,"0.2","[[6 6 6 6 6 6 3 3 3 3]
 [6 6 6 6 6 6 3 3 3 3]
 [6 6 6 6 6 6 6 3 3 3]
 [6 6 6 6 6 4 4 4 3 3]
 [5 5 5 5 4 4 4 4 4 1]
 [5 5 5 5 2 4 4 1 1 1]
 [5 5 5 5 2 1 1 1 1 1]
 [5 5 5 5 2 2 1 1 1 1]
 [5 5 5 2 2 2 1 1 1 1]
 [5 5 5 2 2 2 1 1 1 1]]","[[6 6 6 6 6 6 3 3 3 3]
 [6 6 6 6 6 6 3 3 3 3]
 [6 6 6 6 6 6 6 3 3 3]
 [6 6 6 6 6 4 4 4 3 3]
 [5 5 5 5 4 4 4 4 4 1]
 [5 5 5 5 2 4 4 1 1 1]
 [5 5 5 5 2 1 1 1 1 1]
 [5 5 5 5 2 2 1 1 1 1]
 [5 5 5 2 2 2 1 1 1 1]
 [5 5 5 2 2 2 1 1 1 1]]","[[1 1]
 [2 1]
 [3 1]
 [4 1]
 [1 2]
 [2 2]
 [3 2]
 [4 2]
 [1 3]
 [2 3]
 [3 3]
 [4 3]
 [1 4]
 [2 4]
 [3 4]
 [4 4]
 [1 5]
 [2 5]
 [3 5]
 [4 5]
 [1 6]
 [2 6]
 [3 6]
 [3 7]]","[190.         195.25343966 200.65213525 206.20010306 211.90147042
 217.76047878]",0.0276496823956,"[1.5   0.004 2.    1.   ]",NA,NA,NA,NA,NA,NA,NA,NA,NA,NA,NA,NA,0.0587719151927821,0.0587719151927821,NA,NA,0.490403063843181
"go","08-12-2022",30,"1",2,2,"0","0",19215,0,4,828.500270843506,20,-1,3,3.16227766016838,13.1623745999214,2.9160058604849e-14,1,1,"1",1,204.598104175774,217.760478775696,-13.1623745999214,6,"1","[[3 3 3 3 2 2 2 2 2 2]
 [3 3 3 3 4 2 2 2 6 6]
 [3 3 3 3 4 4 6 6 6 6]
 [3 3 3 4 4 4 6 6 6 6]
 [3 3 4 4 4 4 6 6 6 6]
 [5 5 5 5 4 4 6 6 6 6]
 [5 5 5 5 5 1 1 1 6 6]
 [5 5 5 5 5 1 1 1 1 1]
 [5 5 5 5 1 1 1 1 1 1]
 [5 5 5 5 1 1 1 1 1 1]]","[[3 3 3 3 2 2 2 2 2 2]
 [3 3 3 3 4 2 2 2 6 6]
 [3 3 3 3 4 4 6 6 6 6]
 [3 3 3 4 4 4 6 6 6 6]
 [3 3 4 4 4 4 6 6 6 6]
 [5 5 5 5 4 4 6 6 6 6]
 [5 5 5 5 5 1 1 1 6 6]
 [5 5 5 5 5 1 1 1 1 1]
 [5 5 5 5 1 1 1 1 1 1]
 [5 5 5 5 1 1 1 1 1 1]]","[[ 3  7]
 [ 4  7]
 [ 5  7]
 [ 6  7]
 [ 3  8]
 [ 4  8]
 [ 5  8]
 [ 6  8]
 [ 2  9]
 [ 3  9]
 [ 4  9]
 [ 5  9]
 [ 6  9]
 [ 7  9]
 [ 2 10]
 [ 3 10]
 [ 4 10]
 [ 5 10]
 [ 6 10]
 [ 7 10]]","[190.         195.25343966 200.65213525 206.20010306 211.90147042
 217.76047878]",0.0276496823956,"[1.5   0.004 2.    1.   ]",NA,NA,NA,NA,NA,NA,NA,NA,NA,NA,NA,NA,0.0429133300335839,0.0008586369036838,NA,NA,0.741252039614464
"go","08-12-2022",33,"1",5,2,"0","0",29939,0,11,288.448333740234,16,1,-3,3.16227766016838,8.54278456849286,8.80614458357608e-14,1,1,"1",1,203.358685850945,211.901470419438,-8.54278456849286,5,"1","[[4 4 4 4 4 4 2 2 2 2]
 [4 4 4 4 4 4 2 2 2 2]
 [4 4 4 4 4 4 2 2 2 2]
 [5 5 5 5 4 6 6 6 6 6]
 [5 5 5 5 1 6 6 6 6 6]
 [5 5 5 1 1 6 6 6 6 6]
 [5 5 1 1 1 1 6 3 3 3]
 [5 5 1 1 1 1 3 3 3 3]
 [5 1 1 1 1 1 3 3 3 3]
 [1 1 1 1 1 3 3 3 3 3]]","[[4 4 4 4 4 4 2 2 2 2]
 [4 4 4 4 4 4 2 2 2 2]
 [4 4 4 4 4 4 2 2 2 2]
 [5 5 5 5 4 6 6 6 6 6]
 [5 5 5 5 1 6 6 6 6 6]
 [5 5 5 1 1 6 6 6 6 6]
 [5 5 1 1 1 1 6 3 3 3]
 [5 5 1 1 1 1 3 3 3 3]
 [5 1 1 1 1 1 3 3 3 3]
 [1 1 1 1 1 3 3 3 3 3]]","[[4 1]
 [5 1]
 [6 1]
 [7 1]
 [8 1]
 [9 1]
 [4 2]
 [5 2]
 [6 2]
 [7 2]
 [8 2]
 [4 3]
 [5 3]
 [6 3]
 [4 4]
 [5 4]]","[190.         195.25343966 200.65213525 206.20010306 211.90147042
 217.76047878]",0.0276496823956,"[1.5   0.004 2.    1.   ]",NA,NA,NA,NA,NA,NA,NA,NA,NA,NA,NA,NA,0.0227303200934698,0.0227303200934698,NA,NA,0.521510774087985
"go","08-12-2022",35,"1",5,1,"0","0",78219,0,10,248.464584350586,19,-2,-1.5,2.5,-12.6802749395424,0,1,1,"1",1,202.680274939542,190,12.6802749395424,1,"0.2","[[4 4 4 4 4 4 3 3 3 3]
 [4 4 4 4 1 1 3 3 3 3]
 [1 1 1 1 1 1 1 3 3 3]
 [1 1 1 1 1 1 6 6 3 3]
 [2 1 1 1 1 6 6 5 5 5]
 [2 2 2 6 6 6 5 5 5 5]
 [2 2 2 2 6 5 5 5 5 5]
 [2 2 2 2 5 5 5 5 5 5]
 [2 2 2 2 5 5 5 5 5 5]
 [2 2 2 2 2 5 5 5 5 5]]","[[4 4 4 4 4 4 3 3 3 3]
 [4 4 4 4 1 1 3 3 3 3]
 [1 1 1 1 1 1 1 3 3 3]
 [1 1 1 1 1 1 6 6 3 3]
 [2 1 1 1 1 6 6 5 5 5]
 [2 2 2 6 6 6 5 5 5 5]
 [2 2 2 2 6 5 5 5 5 5]
 [2 2 2 2 5 5 5 5 5 5]
 [2 2 2 2 5 5 5 5 5 5]
 [2 2 2 2 2 5 5 5 5 5]]","[[3 1]
 [4 1]
 [3 2]
 [4 2]
 [5 2]
 [3 3]
 [4 3]
 [5 3]
 [3 4]
 [4 4]
 [5 4]
 [2 5]
 [3 5]
 [4 5]
 [5 5]
 [2 6]
 [3 6]
 [4 6]
 [3 7]]","[190.         195.25343966 200.65213525 206.20010306 211.90147042
 217.76047878]",0.0276496823956,"[1.5   0.004 2.    1.   ]",NA,NA,NA,NA,NA,NA,NA,NA,NA,NA,NA,NA,0.055752876742587,0.055752876742587,NA,NA,0.432902853280104
"go","08-12-2022",36,"1",4,1,"0","0",57419,0,8,258.435487747192,17,0.5,-1.5,1.58113883008419,4.30093352797428,5.85928550210846e-14,1,1,"1",1,201.899169531917,206.200103059892,-4.30093352797428,4,"0.2","[[3 3 3 3 3 3 5 5 5 5]
 [3 3 3 3 3 3 5 5 5 5]
 [3 3 3 3 3 6 6 5 5 5]
 [3 3 4 4 4 4 6 6 6 6]
 [1 4 4 4 4 4 6 6 6 6]
 [1 1 4 4 4 4 2 6 6 6]
 [1 1 1 4 4 4 2 2 2 2]
 [1 1 1 1 4 2 2 2 2 2]
 [1 1 1 1 1 2 2 2 2 2]
 [1 1 1 1 2 2 2 2 2 2]]","[[3 3 3 3 3 3 5 5 5 5]
 [3 3 3 3 3 3 5 5 5 5]
 [3 3 3 3 3 6 6 5 5 5]
 [3 3 4 4 4 4 6 6 6 6]
 [1 4 4 4 4 4 6 6 6 6]
 [1 1 4 4 4 4 2 6 6 6]
 [1 1 1 4 4 4 2 2 2 2]
 [1 1 1 1 4 2 2 2 2 2]
 [1 1 1 1 1 2 2 2 2 2]
 [1 1 1 1 2 2 2 2 2 2]]","[[5 2]
 [4 3]
 [5 3]
 [6 3]
 [4 4]
 [5 4]
 [6 4]
 [7 4]
 [4 5]
 [5 5]
 [6 5]
 [7 5]
 [8 5]
 [4 6]
 [5 6]
 [6 6]
 [7 6]]","[190.         195.25343966 200.65213525 206.20010306 211.90147042
 217.76047878]",0.0276496823956,"[1.5   0.004 2.    1.   ]",NA,NA,NA,NA,NA,NA,NA,NA,NA,NA,NA,NA,0.0566738428168375,0.0566738428168375,NA,NA,0.4938280753002
"go","08-12-2022",37,"1",3,2,"0","1",42510,0,6,248.488187789917,15,-3,2.5,3.90512483795333,0.52343007474667,5.88385284466728e-14,1,1,"1",0,205.676672985145,206.200103059892,-0.52343007474667,4,"1","[[1 1 1 1 1 4 4 4 4 4]
 [1 1 1 1 6 4 4 4 4 4]
 [1 1 1 6 6 6 4 4 4 4]
 [1 6 6 6 6 6 2 2 2 4]
 [6 6 6 6 6 6 2 2 3 3]
 [6 6 6 6 6 2 2 3 3 3]
 [5 5 5 5 5 2 3 3 3 3]
 [5 5 5 5 5 5 3 3 3 3]
 [5 5 5 5 5 5 3 3 3 3]
 [5 5 5 5 5 5 3 3 3 3]]","[[1 1 1 1 1 4 4 4 4 4]
 [1 1 1 1 6 4 4 4 4 4]
 [1 1 1 6 6 6 4 4 4 4]
 [1 6 6 6 6 6 2 2 2 4]
 [6 6 6 6 6 6 2 2 3 3]
 [6 6 6 6 6 2 2 3 3 3]
 [5 5 5 5 5 2 3 3 3 3]
 [5 5 5 5 5 5 3 3 3 3]
 [5 5 5 5 5 5 3 3 3 3]
 [5 5 5 5 5 5 3 3 3 3]]","[[ 1  6]
 [ 2  6]
 [ 1  7]
 [ 2  7]
 [ 3  7]
 [ 1  8]
 [ 2  8]
 [ 3  8]
 [ 1  9]
 [ 2  9]
 [ 3  9]
 [ 1 10]
 [ 2 10]
 [ 3 10]
 [ 4 10]]","[190.         195.25343966 200.65213525 206.20010306 211.90147042
 217.76047878]",0.0276496823956,"[1.5   0.004 2.    1.   ]",NA,NA,NA,NA,NA,NA,NA,NA,NA,NA,NA,NA,0.0556243520268137,0.0200445221574791,NA,NA,0.718065089098506
"go","08-12-2022",38,"1",3,2,"0","0",11158,0,7,328.445911407471,29,-1.5,2,2.5,-13.1415876225692,0,1,1,"1",1,203.141587622569,190,13.1415876225692,1,"1","[[6 6 6 6 1 1 1 1 1 1]
 [6 6 6 6 1 1 1 1 1 1]
 [6 6 6 6 2 1 1 1 1 1]
 [6 6 6 2 2 2 1 1 1 1]
 [6 6 6 2 2 2 1 1 1 1]
 [6 6 4 4 2 2 2 1 1 1]
 [3 3 4 4 5 5 5 5 5 1]
 [3 3 3 3 5 5 5 5 5 5]
 [3 3 3 3 5 5 5 5 5 5]
 [3 3 3 3 3 5 5 5 5 5]]","[[6 6 6 6 1 1 1 1 1 1]
 [6 6 6 6 1 1 1 1 1 1]
 [6 6 6 6 2 1 1 1 1 1]
 [6 6 6 2 2 2 1 1 1 1]
 [6 6 6 2 2 2 1 1 1 1]
 [6 6 4 4 2 2 2 1 1 1]
 [3 3 4 4 5 5 5 5 5 1]
 [3 3 3 3 5 5 5 5 5 5]
 [3 3 3 3 5 5 5 5 5 5]
 [3 3 3 3 3 5 5 5 5 5]]","[[ 1  5]
 [ 2  5]
 [ 1  6]
 [ 2  6]
 [ 3  6]
 [ 1  7]
 [ 2  7]
 [ 3  7]
 [ 4  7]
 [ 5  7]
 [ 1  8]
 [ 2  8]
 [ 3  8]
 [ 4  8]
 [ 5  8]
 [ 6  8]
 [ 1  9]
 [ 2  9]
 [ 3  9]
 [ 4  9]
 [ 5  9]
 [ 6  9]
 [ 1 10]
 [ 2 10]
 [ 3 10]
 [ 4 10]
 [ 5 10]
 [ 6 10]
 [ 7 10]]","[190.         195.25343966 200.65213525 206.20010306 211.90147042
 217.76047878]",0.0276496823956,"[1.5   0.004 2.    1.   ]",NA,NA,NA,NA,NA,NA,NA,NA,NA,NA,NA,NA,0.0712611842245039,0.0326560028522563,NA,NA,0.750149498156729
"go","08-12-2022",40,"1",3,1,"0","0",80269,0,6,268.448352813721,27,2,-2,2.82842712474619,-4.97475822200863,2.89631239732596e-14,1,1,"1",1,200.228197877173,195.253439655164,4.97475822200863,2,"0.2","[[4 4 4 4 3 3 3 3 3 3]
 [4 4 4 6 6 3 3 3 3 3]
 [4 4 6 6 6 5 5 5 5 1]
 [4 6 6 6 6 5 5 5 1 1]
 [2 6 6 6 6 5 5 1 1 1]
 [2 2 2 2 5 5 1 1 1 1]
 [2 2 2 2 2 1 1 1 1 1]
 [2 2 2 2 2 1 1 1 1 1]
 [2 2 2 2 2 2 1 1 1 1]
 [2 2 2 2 2 2 1 1 1 1]]","[[4 4 4 4 3 3 3 3 3 3]
 [4 4 4 6 6 3 3 3 3 3]
 [4 4 6 6 6 5 5 5 5 1]
 [4 6 6 6 6 5 5 5 1 1]
 [2 6 6 6 6 5 5 1 1 1]
 [2 2 2 2 5 5 1 1 1 1]
 [2 2 2 2 2 1 1 1 1 1]
 [2 2 2 2 2 1 1 1 1 1]
 [2 2 2 2 2 2 1 1 1 1]
 [2 2 2 2 2 2 1 1 1 1]]","[[ 5  1]
 [ 6  1]
 [ 7  1]
 [ 8  1]
 [ 9  1]
 [10  1]
 [ 6  2]
 [ 7  2]
 [ 8  2]
 [ 9  2]
 [10  2]
 [ 6  3]
 [ 7  3]
 [ 8  3]
 [ 9  3]
 [10  3]
 [ 6  4]
 [ 7  4]
 [ 8  4]
 [ 9  4]
 [10  4]
 [ 7  5]
 [ 8  5]
 [ 9  5]
 [10  5]
 [ 9  6]
 [10  6]]","[190.         195.25343966 200.65213525 206.20010306 211.90147042
 217.76047878]",0.0276496823956,"[1.5   0.004 2.    1.   ]",NA,NA,NA,NA,NA,NA,NA,NA,NA,NA,NA,NA,0.0428482661505916,0.0428482661505916,NA,NA,0.578582238501248
"go","08-12-2022",41,"1",3,2,"0","1",21569,0,6,278.43451499939,16,-3.5,-1.5,3.80788655293195,-13.3408077643816,0,1,1,"1",0,203.340807764382,190,13.3408077643816,1,"1","[[1 1 1 1 1 1 1 4 4 4]
 [3 3 1 1 1 1 1 4 4 4]
 [3 3 3 1 1 1 1 4 4 4]
 [3 3 3 3 6 6 6 4 4 4]
 [3 3 3 6 6 6 6 4 4 4]
 [3 3 3 6 6 6 6 2 4 4]
 [3 3 6 6 6 6 2 2 2 4]
 [5 5 5 5 5 2 2 2 2 2]
 [5 5 5 5 5 2 2 2 2 2]
 [5 5 5 5 5 5 2 2 2 2]]","[[1 1 1 1 1 1 1 4 4 4]
 [3 3 1 1 1 1 1 4 4 4]
 [3 3 3 1 1 1 1 4 4 4]
 [3 3 3 3 6 6 6 4 4 4]
 [3 3 3 6 6 6 6 4 4 4]
 [3 3 3 6 6 6 6 2 4 4]
 [3 3 6 6 6 6 2 2 2 4]
 [5 5 5 5 5 2 2 2 2 2]
 [5 5 5 5 5 2 2 2 2 2]
 [5 5 5 5 5 5 2 2 2 2]]","[[1 1]
 [1 2]
 [1 3]
 [2 3]
 [1 4]
 [2 4]
 [3 4]
 [1 5]
 [2 5]
 [3 5]
 [1 6]
 [2 6]
 [3 6]
 [1 7]
 [2 7]
 [3 7]]","[190.         195.25343966 200.65213525 206.20010306 211.90147042
 217.76047878]",0.0276496823956,"[1.5   0.004 2.    1.   ]",NA,NA,NA,NA,NA,NA,NA,NA,NA,NA,NA,NA,0.0195671176997334,0.0195671176997334,NA,NA,0.635410970015198
"go","08-12-2022",42,"1",5,2,"0","0",284,0,10,318.408489227295,20,0.5,-2,2.06155281280883,-4.85370200276833,0,1,1,"1",1,205.505837251046,200.652135248278,4.85370200276833,3,"1","[[6 6 6 6 6 4 4 4 4 4]
 [6 6 6 6 6 4 4 4 4 4]
 [6 6 6 6 6 4 4 4 4 1]
 [6 6 6 6 3 4 4 4 1 1]
 [6 6 3 3 3 3 1 1 1 1]
 [3 3 3 3 3 3 5 1 1 1]
 [3 3 3 3 3 5 5 5 5 1]
 [2 3 3 3 3 5 5 5 5 5]
 [2 2 2 2 2 5 5 5 5 5]
 [2 2 2 2 2 2 5 5 5 5]]","[[6 6 6 6 6 4 4 4 4 4]
 [6 6 6 6 6 4 4 4 4 4]
 [6 6 6 6 6 4 4 4 4 1]
 [6 6 6 6 3 4 4 4 1 1]
 [6 6 3 3 3 3 1 1 1 1]
 [3 3 3 3 3 3 5 1 1 1]
 [3 3 3 3 3 5 5 5 5 1]
 [2 3 3 3 3 5 5 5 5 5]
 [2 2 2 2 2 5 5 5 5 5]
 [2 2 2 2 2 2 5 5 5 5]]","[[6 1]
 [7 1]
 [6 2]
 [7 2]
 [8 2]
 [5 3]
 [6 3]
 [7 3]
 [8 3]
 [5 4]
 [6 4]
 [7 4]
 [8 4]
 [4 5]
 [5 5]
 [6 5]
 [7 5]
 [8 5]
 [5 6]
 [6 6]]","[190.         195.25343966 200.65213525 206.20010306 211.90147042
 217.76047878]",0.0276496823956,"[1.5   0.004 2.    1.   ]",NA,NA,NA,NA,NA,NA,NA,NA,NA,NA,NA,NA,0.0346974506519054,0.0346974506519054,NA,NA,0.552805003116691
"go","08-12-2022",43,"1",4,2,"0","1",67172,0,9,278.463840484619,22,-0.5,2,2.06155281280883,7.06375003116318,1.16362188173107e-13,1,1,"1",0,204.837720388275,211.901470419438,-7.06375003116318,5,"1","[[4 4 4 4 6 6 6 6 6 6]
 [4 4 4 4 6 6 6 6 6 6]
 [4 4 4 4 4 5 6 6 6 6]
 [4 4 4 4 5 5 5 5 5 5]
 [4 4 4 2 2 5 5 5 5 5]
 [4 2 2 2 2 5 5 5 5 5]
 [2 2 2 2 2 5 5 5 5 5]
 [3 3 3 3 3 1 1 1 1 1]
 [3 3 3 3 3 1 1 1 1 1]
 [3 3 3 3 3 1 1 1 1 1]]","[[4 4 4 4 6 6 6 6 6 6]
 [4 4 4 4 6 6 6 6 6 6]
 [4 4 4 4 4 5 6 6 6 6]
 [4 4 4 4 5 5 5 5 5 5]
 [4 4 4 2 2 5 5 5 5 5]
 [4 2 2 2 2 5 5 5 5 5]
 [2 2 2 2 2 5 5 5 5 5]
 [3 3 3 3 3 1 1 1 1 1]
 [3 3 3 3 3 1 1 1 1 1]
 [3 3 3 3 3 1 1 1 1 1]]","[[ 4  5]
 [ 3  6]
 [ 4  6]
 [ 5  6]
 [ 6  6]
 [ 7  6]
 [ 4  7]
 [ 5  7]
 [ 6  7]
 [ 7  7]
 [ 4  8]
 [ 5  8]
 [ 6  8]
 [ 7  8]
 [ 4  9]
 [ 5  9]
 [ 6  9]
 [ 7  9]
 [ 4 10]
 [ 5 10]
 [ 6 10]
 [ 7 10]]","[190.         195.25343966 200.65213525 206.20010306 211.90147042
 217.76047878]",0.0276496823956,"[1.5   0.004 2.    1.   ]",NA,NA,NA,NA,NA,NA,NA,NA,NA,NA,NA,NA,0.0583264444180222,0.0583264444180222,NA,NA,0.670836521953649
"go","08-12-2022",45,"1",1,2,"0","0",74927,0,2,1.56474113464355,12,-3.5,2.5,4.30116263352131,13.1121717559279,2.96855073353921e-14,1,1,"1",1,204.648307019768,217.760478775696,-13.1121717559279,6,"1","[[3 3 3 3 3 6 6 6 6 6]
 [3 3 3 3 2 2 6 6 6 6]
 [3 3 3 3 2 2 6 6 6 1]
 [3 3 3 2 2 2 1 1 1 1]
 [5 5 5 2 2 2 1 1 1 1]
 [5 5 5 5 5 4 4 1 1 1]
 [5 5 5 5 4 4 4 4 1 1]
 [5 5 5 5 4 4 4 4 4 4]
 [5 5 5 5 4 4 4 4 4 4]
 [5 5 5 4 4 4 4 4 4 4]]","[[3 3 3 3 3 6 6 6 6 6]
 [3 3 3 3 2 2 6 6 6 6]
 [3 3 3 3 2 2 6 6 6 1]
 [3 3 3 2 2 2 1 1 1 1]
 [5 5 5 2 2 2 1 1 1 1]
 [5 5 5 5 5 4 4 1 1 1]
 [5 5 5 5 4 4 4 4 1 1]
 [5 5 5 5 4 4 4 4 4 4]
 [5 5 5 5 4 4 4 4 4 4]
 [5 5 5 4 4 4 4 4 4 4]]","[[ 1  6]
 [ 1  7]
 [ 2  7]
 [ 3  7]
 [ 1  8]
 [ 2  8]
 [ 3  8]
 [ 1  9]
 [ 2  9]
 [ 3  9]
 [ 1 10]
 [ 2 10]]","[190.         195.25343966 200.65213525 206.20010306 211.90147042
 217.76047878]",0.0276496823956,"[1.5   0.004 2.    1.   ]",NA,NA,NA,NA,NA,NA,NA,NA,NA,NA,NA,NA,0.0513702745534457,2.38745454229066e-05,NA,NA,0.801040642892662
"go","08-12-2022",48,"1",5,2,"0","0",88526,0,10,88.4628295898438,17,3.5,-2,4.03112887414927,-3.23633143073951,0,1,1,"1",1,203.888466679017,200.652135248278,3.23633143073951,3,"1","[[2 2 2 2 5 5 5 5 5 5]
 [2 2 2 2 5 5 5 5 5 5]
 [2 2 2 2 6 5 5 5 5 5]
 [2 2 2 6 6 6 1 5 5 5]
 [2 2 2 6 6 6 1 1 1 1]
 [2 2 6 6 6 6 1 1 1 1]
 [2 6 6 6 6 4 4 1 1 1]
 [3 3 3 3 3 4 4 4 4 4]
 [3 3 3 3 3 3 4 4 4 4]
 [3 3 3 3 3 3 4 4 4 4]]","[[2 2 2 2 5 5 5 5 5 5]
 [2 2 2 2 5 5 5 5 5 5]
 [2 2 2 2 6 5 5 5 5 5]
 [2 2 2 6 6 6 1 5 5 5]
 [2 2 2 6 6 6 1 1 1 1]
 [2 2 6 6 6 6 1 1 1 1]
 [2 6 6 6 6 4 4 1 1 1]
 [3 3 3 3 3 4 4 4 4 4]
 [3 3 3 3 3 3 4 4 4 4]
 [3 3 3 3 3 3 4 4 4 4]]","[[ 8  1]
 [ 9  1]
 [10  1]
 [ 8  2]
 [ 9  2]
 [10  2]
 [ 8  3]
 [ 9  3]
 [10  3]
 [ 8  4]
 [ 9  4]
 [10  4]
 [ 8  5]
 [ 9  5]
 [10  5]
 [ 9  6]
 [10  6]]","[190.         195.25343966 200.65213525 206.20010306 211.90147042
 217.76047878]",0.0276496823956,"[1.5   0.004 2.    1.   ]",NA,NA,NA,NA,NA,NA,NA,NA,NA,NA,NA,NA,0.0273187649311854,0.0273187649311854,NA,NA,0.533543142555807
"go","08-12-2022",49,"1",2,1,"0","0",62298,0,4,248.383283615112,19,3,2.5,3.90512483795333,-4.65720753438069,0,1,1,"1",1,205.309342782658,200.652135248278,4.65720753438069,3,"0.2","[[1 1 1 1 2 2 2 2 2 2]
 [1 1 1 1 1 2 2 2 5 5]
 [1 1 1 1 1 5 5 5 5 5]
 [1 1 4 4 4 5 5 5 5 5]
 [4 4 4 4 4 5 5 5 5 5]
 [4 4 4 4 4 6 5 5 5 5]
 [6 6 6 6 6 6 3 3 3 3]
 [6 6 6 6 6 3 3 3 3 3]
 [6 6 6 6 6 3 3 3 3 3]
 [6 6 6 6 6 3 3 3 3 3]]","[[1 1 1 1 2 2 2 2 2 2]
 [1 1 1 1 1 2 2 2 5 5]
 [1 1 1 1 1 5 5 5 5 5]
 [1 1 4 4 4 5 5 5 5 5]
 [4 4 4 4 4 5 5 5 5 5]
 [4 4 4 4 4 6 5 5 5 5]
 [6 6 6 6 6 6 3 3 3 3]
 [6 6 6 6 6 3 3 3 3 3]
 [6 6 6 6 6 3 3 3 3 3]
 [6 6 6 6 6 3 3 3 3 3]]","[[ 8  6]
 [ 9  6]
 [10  6]
 [ 7  7]
 [ 8  7]
 [ 9  7]
 [10  7]
 [ 7  8]
 [ 8  8]
 [ 9  8]
 [10  8]
 [ 7  9]
 [ 8  9]
 [ 9  9]
 [10  9]
 [ 7 10]
 [ 8 10]
 [ 9 10]
 [10 10]]","[190.         195.25343966 200.65213525 206.20010306 211.90147042
 217.76047878]",0.0276496823956,"[1.5   0.004 2.    1.   ]",NA,NA,NA,NA,NA,NA,NA,NA,NA,NA,NA,NA,0.0329129294567064,0.0176680466780503,NA,NA,0.653212894635462
"go","08-12-2022",51,"1",4,1,"0","1",74455,0,9,188.404083251953,18,-0.5,-2.5,2.54950975679639,4.2725640023329,5.84913954557495e-14,1,1,"1",0,201.927539057559,206.200103059892,-4.2725640023329,4,"0.2","[[5 5 5 5 5 6 6 6 6 6]
 [5 5 5 5 5 6 6 6 6 6]
 [4 4 5 5 5 6 6 6 6 3]
 [4 4 4 4 4 3 3 3 3 3]
 [4 4 4 4 4 3 3 3 3 3]
 [4 4 4 4 1 2 2 2 3 3]
 [4 4 1 1 1 1 2 2 2 2]
 [1 1 1 1 1 1 2 2 2 2]
 [1 1 1 1 1 1 1 2 2 2]
 [1 1 1 1 1 1 1 2 2 2]]","[[5 5 5 5 5 6 6 6 6 6]
 [5 5 5 5 5 6 6 6 6 6]
 [4 4 5 5 5 6 6 6 6 3]
 [4 4 4 4 4 3 3 3 3 3]
 [4 4 4 4 4 3 3 3 3 3]
 [4 4 4 4 1 2 2 2 3 3]
 [4 4 1 1 1 1 2 2 2 2]
 [1 1 1 1 1 1 2 2 2 2]
 [1 1 1 1 1 1 1 2 2 2]
 [1 1 1 1 1 1 1 2 2 2]]","[[3 1]
 [4 1]
 [5 1]
 [6 1]
 [7 1]
 [3 2]
 [4 2]
 [5 2]
 [6 2]
 [7 2]
 [4 3]
 [5 3]
 [6 3]
 [4 4]
 [5 4]
 [6 4]
 [4 5]
 [5 5]]","[190.         195.25343966 200.65213525 206.20010306 211.90147042
 217.76047878]",0.0276496823956,"[1.5   0.004 2.    1.   ]",NA,NA,NA,NA,NA,NA,NA,NA,NA,NA,NA,NA,0.0785047856222342,0.0785047856222342,NA,NA,0.458277940754775
"go","08-12-2022",52,"1",4,2,"0","0",36974,0,8,258.361339569092,15,-3,3,4.24264068711928,8.80510496549846,8.82577926700092e-14,1,1,"1",1,203.096365453939,211.901470419438,-8.80510496549846,5,"1","[[4 4 4 4 4 4 5 5 5 5]
 [4 4 4 4 4 4 5 5 5 5]
 [2 4 4 4 4 4 5 5 5 5]
 [2 2 2 4 4 4 5 5 5 1]
 [2 2 2 2 3 3 3 1 1 1]
 [2 2 2 2 3 3 3 1 1 1]
 [2 2 2 2 3 3 3 6 1 1]
 [2 2 2 2 3 3 6 6 6 1]
 [2 2 2 2 3 3 6 6 6 6]
 [2 2 2 2 3 6 6 6 6 6]]","[[4 4 4 4 4 4 5 5 5 5]
 [4 4 4 4 4 4 5 5 5 5]
 [2 4 4 4 4 4 5 5 5 5]
 [2 2 2 4 4 4 5 5 5 1]
 [2 2 2 2 3 3 3 1 1 1]
 [2 2 2 2 3 3 3 1 1 1]
 [2 2 2 2 3 3 3 6 1 1]
 [2 2 2 2 3 3 6 6 6 1]
 [2 2 2 2 3 3 6 6 6 6]
 [2 2 2 2 3 6 6 6 6 6]]","[[ 1  7]
 [ 2  7]
 [ 3  7]
 [ 4  7]
 [ 1  8]
 [ 2  8]
 [ 3  8]
 [ 4  8]
 [ 1  9]
 [ 2  9]
 [ 3  9]
 [ 4  9]
 [ 1 10]
 [ 2 10]
 [ 3 10]]","[190.         195.25343966 200.65213525 206.20010306 211.90147042
 217.76047878]",0.0276496823956,"[1.5   0.004 2.    1.   ]",NA,NA,NA,NA,NA,NA,NA,NA,NA,NA,NA,NA,0.0436735337997046,0.0436735337997046,NA,NA,0.635942812601326
"go","08-12-2022",53,"1",5,2,"0","1",63373,0,10,198.408842086792,18,-3,2,3.60555127546399,-12.5606114854445,0,1,1,"1",0,202.560611485445,190,12.5606114854445,1,"1","[[4 4 4 4 1 1 1 1 1 1]
 [4 4 4 4 1 1 1 1 1 1]
 [4 4 4 4 4 1 1 1 1 1]
 [4 4 4 4 4 1 2 2 2 2]
 [6 6 6 6 6 2 2 2 2 2]
 [6 6 6 6 6 2 2 2 2 2]
 [6 6 6 3 3 2 2 2 5 5]
 [3 3 3 3 3 2 5 5 5 5]
 [3 3 3 3 3 3 5 5 5 5]
 [3 3 3 3 3 3 5 5 5 5]]","[[4 4 4 4 1 1 1 1 1 1]
 [4 4 4 4 1 1 1 1 1 1]
 [4 4 4 4 4 1 1 1 1 1]
 [4 4 4 4 4 1 2 2 2 2]
 [6 6 6 6 6 2 2 2 2 2]
 [6 6 6 6 6 2 2 2 2 2]
 [6 6 6 3 3 2 2 2 5 5]
 [3 3 3 3 3 2 5 5 5 5]
 [3 3 3 3 3 3 5 5 5 5]
 [3 3 3 3 3 3 5 5 5 5]]","[[ 1  5]
 [ 2  5]
 [ 1  6]
 [ 2  6]
 [ 3  6]
 [ 4  6]
 [ 1  7]
 [ 2  7]
 [ 3  7]
 [ 1  8]
 [ 2  8]
 [ 3  8]
 [ 1  9]
 [ 2  9]
 [ 3  9]
 [ 1 10]
 [ 2 10]
 [ 3 10]]","[190.         195.25343966 200.65213525 206.20010306 211.90147042
 217.76047878]",0.0276496823956,"[1.5   0.004 2.    1.   ]",NA,NA,NA,NA,NA,NA,NA,NA,NA,NA,NA,NA,0.0309490992035036,0.0309490992035036,NA,NA,0.543036154292871
"go","08-12-2022",54,"1",4,1,"0","0",78996,0,8,278.431415557861,22,2.5,2.5,3.53553390593274,1.61275345631171,0,1,1,"1",1,204.58734960358,206.200103059892,-1.61275345631171,4,"0.2","[[5 5 5 6 6 6 6 6 6 6]
 [5 5 5 6 6 6 6 6 6 6]
 [5 5 5 1 6 2 2 2 2 2]
 [5 5 5 1 1 2 2 2 2 2]
 [5 5 1 1 1 2 2 2 2 2]
 [5 5 1 1 1 2 2 4 4 4]
 [5 5 3 3 3 4 4 4 4 4]
 [3 3 3 3 3 4 4 4 4 4]
 [3 3 3 3 3 4 4 4 4 4]
 [3 3 3 3 3 3 4 4 4 4]]","[[5 5 5 6 6 6 6 6 6 6]
 [5 5 5 6 6 6 6 6 6 6]
 [5 5 5 1 6 2 2 2 2 2]
 [5 5 5 1 1 2 2 2 2 2]
 [5 5 1 1 1 2 2 2 2 2]
 [5 5 1 1 1 2 2 4 4 4]
 [5 5 3 3 3 4 4 4 4 4]
 [3 3 3 3 3 4 4 4 4 4]
 [3 3 3 3 3 4 4 4 4 4]
 [3 3 3 3 3 3 4 4 4 4]]","[[ 7  6]
 [ 8  6]
 [ 9  6]
 [ 7  7]
 [ 8  7]
 [ 9  7]
 [10  7]
 [ 6  8]
 [ 7  8]
 [ 8  8]
 [ 9  8]
 [10  8]
 [ 6  9]
 [ 7  9]
 [ 8  9]
 [ 9  9]
 [10  9]
 [ 6 10]
 [ 7 10]
 [ 8 10]
 [ 9 10]
 [10 10]]","[190.         195.25343966 200.65213525 206.20010306 211.90147042
 217.76047878]",0.0276496823956,"[1.5   0.004 2.    1.   ]",NA,NA,NA,NA,NA,NA,NA,NA,NA,NA,NA,NA,0.0446387160011602,0.0446387160011602,NA,NA,0.51347627913842
"go","08-12-2022",59,"1",1,1,"0","0",69235,0,2,28.4171104431152,23,3,-2,3.60555127546399,14.6499135929871,0,1,1,"1",1,203.110565182709,217.760478775696,-14.6499135929871,6,"0.2","[[4 4 4 4 4 5 5 5 5 5]
 [3 4 4 4 4 5 5 5 5 5]
 [3 3 3 3 3 1 1 1 1 1]
 [3 3 3 3 3 1 1 1 1 1]
 [3 3 3 3 3 1 1 1 1 1]
 [3 3 3 3 3 1 1 1 1 2]
 [6 6 6 6 6 1 1 2 2 2]
 [6 6 6 6 6 6 2 2 2 2]
 [6 6 6 6 6 6 2 2 2 2]
 [6 6 6 6 6 6 2 2 2 2]]","[[4 4 4 4 4 5 5 5 5 5]
 [3 4 4 4 4 5 5 5 5 5]
 [3 3 3 3 3 1 1 1 1 1]
 [3 3 3 3 3 1 1 1 1 1]
 [3 3 3 3 3 1 1 1 1 1]
 [3 3 3 3 3 1 1 1 1 2]
 [6 6 6 6 6 1 1 2 2 2]
 [6 6 6 6 6 6 2 2 2 2]
 [6 6 6 6 6 6 2 2 2 2]
 [6 6 6 6 6 6 2 2 2 2]]","[[ 7  1]
 [ 8  1]
 [ 9  1]
 [10  1]
 [ 7  2]
 [ 8  2]
 [ 9  2]
 [10  2]
 [ 7  3]
 [ 8  3]
 [ 9  3]
 [10  3]
 [ 7  4]
 [ 8  4]
 [ 9  4]
 [10  4]
 [ 7  5]
 [ 8  5]
 [ 9  5]
 [10  5]
 [ 8  6]
 [ 9  6]
 [10  6]]","[190.         195.25343966 200.65213525 206.20010306 211.90147042
 217.76047878]",0.0276496823956,"[1.5   0.004 2.    1.   ]",NA,NA,NA,NA,NA,NA,NA,NA,NA,NA,NA,NA,0.0601458854196766,8.76922835103921e-05,NA,NA,0.669663665690848
"go","08-12-2022",65,"1",2,2,"0","0",74891,0,4,298.396348953247,23,2.5,-2.5,3.53553390593274,12.725507635249,0,1,1,"1",1,205.034971140447,217.760478775696,-12.725507635249,6,"1","[[2 2 2 2 5 5 5 5 5 5]
 [2 2 2 2 5 5 5 5 5 5]
 [2 2 2 2 3 5 5 5 5 5]
 [2 2 3 3 3 3 3 4 4 4]
 [2 3 3 3 3 3 4 4 4 4]
 [6 6 6 3 3 4 4 4 4 4]
 [6 6 6 6 6 4 4 4 4 4]
 [6 6 6 6 6 1 1 1 1 1]
 [6 6 6 6 6 1 1 1 1 1]
 [6 6 6 6 6 1 1 1 1 1]]","[[2 2 2 2 5 5 5 5 5 5]
 [2 2 2 2 5 5 5 5 5 5]
 [2 2 2 2 3 5 5 5 5 5]
 [2 2 3 3 3 3 3 4 4 4]
 [2 3 3 3 3 3 4 4 4 4]
 [6 6 6 3 3 4 4 4 4 4]
 [6 6 6 6 6 4 4 4 4 4]
 [6 6 6 6 6 1 1 1 1 1]
 [6 6 6 6 6 1 1 1 1 1]
 [6 6 6 6 6 1 1 1 1 1]]","[[ 6  1]
 [ 7  1]
 [ 8  1]
 [ 9  1]
 [10  1]
 [ 6  2]
 [ 7  2]
 [ 8  2]
 [ 9  2]
 [10  2]
 [ 6  3]
 [ 7  3]
 [ 8  3]
 [ 9  3]
 [10  3]
 [ 7  4]
 [ 8  4]
 [ 9  4]
 [10  4]
 [ 7  5]
 [ 8  5]
 [ 9  5]
 [10  5]]","[190.         195.25343966 200.65213525 206.20010306 211.90147042
 217.76047878]",0.0276496823956,"[1.5   0.004 2.    1.   ]",NA,NA,NA,NA,NA,NA,NA,NA,NA,NA,NA,NA,0.0488478495261645,0.0004175803318701,NA,NA,0.753046583896804
"go","08-12-2022",67,"1",1,2,"0","0",97712,0,2,348.414182662964,15,-2.5,-3,3.90512483795333,7.84336725067234,8.82577926700092e-14,1,1,"1",1,204.058103168765,211.901470419438,-7.84336725067234,5,"1","[[5 5 5 5 2 4 4 4 4 4]
 [5 5 5 5 2 2 4 4 4 4]
 [5 5 5 5 2 2 2 4 4 4]
 [5 5 1 1 2 2 2 2 4 4]
 [5 1 1 1 1 6 2 2 2 4]
 [1 1 1 1 6 6 6 3 3 3]
 [1 1 1 6 6 6 3 3 3 3]
 [1 6 6 6 6 3 3 3 3 3]
 [6 6 6 6 3 3 3 3 3 3]
 [6 6 6 3 3 3 3 3 3 3]]","[[5 5 5 5 2 4 4 4 4 4]
 [5 5 5 5 2 2 4 4 4 4]
 [5 5 5 5 2 2 2 4 4 4]
 [5 5 1 1 2 2 2 2 4 4]
 [5 1 1 1 1 6 2 2 2 4]
 [1 1 1 1 6 6 6 3 3 3]
 [1 1 1 6 6 6 3 3 3 3]
 [1 6 6 6 6 3 3 3 3 3]
 [6 6 6 6 3 3 3 3 3 3]
 [6 6 6 3 3 3 3 3 3 3]]","[[1 1]
 [2 1]
 [3 1]
 [4 1]
 [5 1]
 [1 2]
 [2 2]
 [3 2]
 [4 2]
 [1 3]
 [2 3]
 [3 3]
 [1 4]
 [2 4]
 [3 4]]","[190.         195.25343966 200.65213525 206.20010306 211.90147042
 217.76047878]",0.0276496823956,"[1.5   0.004 2.    1.   ]",NA,NA,NA,NA,NA,NA,NA,NA,NA,NA,NA,NA,0.0212327346418733,8.81658268800941e-05,NA,NA,0.745681944236578
"go","08-12-2022",68,"1",5,1,"0","0",61033,0,10,188.39430809021,16,-3,-2.5,3.90512483795333,2.03406950424068,5.87076305571739e-14,1,1,"1",1,204.166033555651,206.200103059892,-2.03406950424068,4,"0.2","[[4 4 4 4 4 1 1 1 1 1]
 [4 4 4 4 4 1 1 1 1 1]
 [4 4 4 4 5 1 1 1 2 2]
 [4 4 5 5 5 5 2 2 2 2]
 [5 5 5 5 5 5 2 2 2 2]
 [5 5 5 5 5 5 2 2 2 2]
 [3 3 3 3 3 3 6 6 6 2]
 [3 3 3 3 3 3 6 6 6 6]
 [3 3 3 3 3 6 6 6 6 6]
 [3 3 3 3 3 6 6 6 6 6]]","[[4 4 4 4 4 1 1 1 1 1]
 [4 4 4 4 4 1 1 1 1 1]
 [4 4 4 4 5 1 1 1 2 2]
 [4 4 5 5 5 5 2 2 2 2]
 [5 5 5 5 5 5 2 2 2 2]
 [5 5 5 5 5 5 2 2 2 2]
 [3 3 3 3 3 3 6 6 6 2]
 [3 3 3 3 3 3 6 6 6 6]
 [3 3 3 3 3 6 6 6 6 6]
 [3 3 3 3 3 6 6 6 6 6]]","[[1 1]
 [2 1]
 [3 1]
 [4 1]
 [1 2]
 [2 2]
 [3 2]
 [4 2]
 [1 3]
 [2 3]
 [3 3]
 [1 4]
 [2 4]
 [3 4]
 [1 5]
 [2 5]]","[190.         195.25343966 200.65213525 206.20010306 211.90147042
 217.76047878]",0.0276496823956,"[1.5   0.004 2.    1.   ]",NA,NA,NA,NA,NA,NA,NA,NA,NA,NA,NA,NA,0.0511287002544544,0.0511287002544544,NA,NA,0.440332043665219
"go","08-12-2022",70,"1",4,2,"0","0",58225,0,8,288.460969924927,18,3,-2.5,3.90512483795333,-12.2504555770707,0,1,1,"1",1,202.250455577071,190,12.2504555770707,1,"1","[[6 6 6 6 6 4 4 4 4 4]
 [6 6 6 6 6 4 4 4 5 5]
 [3 3 6 6 6 4 5 5 5 5]
 [3 3 3 3 6 5 5 5 5 5]
 [3 3 3 3 3 5 5 5 5 5]
 [3 3 3 3 2 2 2 2 5 5]
 [1 1 1 1 2 2 2 2 2 2]
 [1 1 1 1 2 2 2 2 2 2]
 [1 1 1 1 1 2 2 2 2 2]
 [1 1 1 1 1 2 2 2 2 2]]","[[6 6 6 6 6 4 4 4 4 4]
 [6 6 6 6 6 4 4 4 5 5]
 [3 3 6 6 6 4 5 5 5 5]
 [3 3 3 3 6 5 5 5 5 5]
 [3 3 3 3 3 5 5 5 5 5]
 [3 3 3 3 2 2 2 2 5 5]
 [1 1 1 1 2 2 2 2 2 2]
 [1 1 1 1 2 2 2 2 2 2]
 [1 1 1 1 1 2 2 2 2 2]
 [1 1 1 1 1 2 2 2 2 2]]","[[ 7  1]
 [ 8  1]
 [ 9  1]
 [10  1]
 [ 7  2]
 [ 8  2]
 [ 9  2]
 [10  2]
 [ 7  3]
 [ 8  3]
 [ 9  3]
 [10  3]
 [ 7  4]
 [ 8  4]
 [ 9  4]
 [10  4]
 [ 9  5]
 [10  5]]","[190.         195.25343966 200.65213525 206.20010306 211.90147042
 217.76047878]",0.0276496823956,"[1.5   0.004 2.    1.   ]",NA,NA,NA,NA,NA,NA,NA,NA,NA,NA,NA,NA,0.0659905826160653,0.0659905826160653,NA,NA,0.688391598119506
"go","08-12-2022",76,"1",1,2,"0","0",24508,0,2,358.48593711853,18,-3,-2.5,3.90512483795333,-12.3461552427115,0,1,1,"1",1,202.346155242711,190,12.3461552427115,1,"1","[[1 1 1 1 1 6 6 6 6 6]
 [1 1 1 1 1 6 6 6 6 6]
 [1 1 1 1 1 6 6 4 4 4]
 [1 1 1 5 5 5 4 4 4 4]
 [5 5 5 5 5 5 4 4 4 4]
 [5 5 5 5 5 5 2 2 4 4]
 [3 3 5 5 5 2 2 2 2 2]
 [3 3 3 3 3 2 2 2 2 2]
 [3 3 3 3 3 2 2 2 2 2]
 [3 3 3 3 3 2 2 2 2 2]]","[[1 1 1 1 1 6 6 6 6 6]
 [1 1 1 1 1 6 6 6 6 6]
 [1 1 1 1 1 6 6 4 4 4]
 [1 1 1 5 5 5 4 4 4 4]
 [5 5 5 5 5 5 4 4 4 4]
 [5 5 5 5 5 5 2 2 4 4]
 [3 3 5 5 5 2 2 2 2 2]
 [3 3 3 3 3 2 2 2 2 2]
 [3 3 3 3 3 2 2 2 2 2]
 [3 3 3 3 3 2 2 2 2 2]]","[[1 1]
 [2 1]
 [3 1]
 [4 1]
 [1 2]
 [2 2]
 [3 2]
 [4 2]
 [1 3]
 [2 3]
 [3 3]
 [4 3]
 [1 4]
 [2 4]
 [3 4]
 [1 5]
 [2 5]
 [3 5]]","[190.         195.25343966 200.65213525 206.20010306 211.90147042
 217.76047878]",0.0276496823956,"[1.5   0.004 2.    1.   ]",NA,NA,NA,NA,NA,NA,NA,NA,NA,NA,NA,NA,0.0277509302212126,1.18080107581428e-05,NA,NA,0.758467493337551
"go","08-12-2022",5,"2",3,2,"0","0",6760,0,7,278.334617614746,23,2.5,2,3.20156211871642,-8.74798657439098,2.90604792863601e-14,1,1,"1",1,204.001426229555,195.253439655164,8.74798657439098,2,"1","[[4 4 4 4 4 3 3 3 3 3]
 [4 4 4 4 4 4 3 6 6 6]
 [5 5 5 5 5 4 6 6 6 6]
 [5 5 5 5 5 6 6 6 6 6]
 [5 5 5 5 5 6 6 6 6 6]
 [5 5 5 5 5 2 2 6 6 6]
 [1 1 1 1 2 2 2 2 2 6]
 [1 1 1 1 2 2 2 2 2 2]
 [1 1 1 1 1 2 2 2 2 2]
 [1 1 1 1 1 2 2 2 2 2]]","[[4 4 4 4 4 3 3 3 3 3]
 [4 4 4 4 4 4 3 6 6 6]
 [5 5 5 5 5 4 6 6 6 6]
 [5 5 5 5 5 6 6 6 6 6]
 [5 5 5 5 5 6 6 6 6 6]
 [5 5 5 5 5 2 2 6 6 6]
 [1 1 1 1 2 2 2 2 2 6]
 [1 1 1 1 2 2 2 2 2 2]
 [1 1 1 1 1 2 2 2 2 2]
 [1 1 1 1 1 2 2 2 2 2]]","[[ 7  5]
 [ 8  5]
 [ 6  6]
 [ 7  6]
 [ 8  6]
 [ 9  6]
 [10  6]
 [ 6  7]
 [ 7  7]
 [ 8  7]
 [ 9  7]
 [10  7]
 [ 7  8]
 [ 8  8]
 [ 9  8]
 [10  8]
 [ 7  9]
 [ 8  9]
 [ 9  9]
 [10  9]
 [ 8 10]
 [ 9 10]
 [10 10]]","[190.         195.25343966 200.65213525 206.20010306 211.90147042
 217.76047878]",0.0276496823956,"[1.5   0.004 2.    1.   ]",NA,NA,NA,NA,NA,NA,NA,NA,NA,NA,NA,NA,0.0743856138160713,0.0447583940850748,NA,NA,0.756260161943478
"go","08-12-2022",10,"2",3,2,"0","0",80652,0,6,298.403263092041,19,2.5,2.5,3.53553390593274,8.06586613305362,1.16802122400732e-13,1,1,"1",1,203.835604286384,211.901470419438,-8.06586613305362,5,"1","[[6 6 6 6 1 1 1 1 1 1]
 [6 6 6 6 3 1 1 1 1 1]
 [6 6 6 3 3 3 1 1 1 1]
 [6 6 3 3 3 2 2 2 2 1]
 [6 3 3 3 3 2 2 2 2 2]
 [3 3 3 3 2 2 2 2 5 5]
 [4 4 4 4 2 2 5 5 5 5]
 [4 4 4 4 4 5 5 5 5 5]
 [4 4 4 4 4 4 5 5 5 5]
 [4 4 4 4 4 4 5 5 5 5]]","[[6 6 6 6 1 1 1 1 1 1]
 [6 6 6 6 3 1 1 1 1 1]
 [6 6 6 3 3 3 1 1 1 1]
 [6 6 3 3 3 2 2 2 2 1]
 [6 3 3 3 3 2 2 2 2 2]
 [3 3 3 3 2 2 2 2 5 5]
 [4 4 4 4 2 2 5 5 5 5]
 [4 4 4 4 4 5 5 5 5 5]
 [4 4 4 4 4 4 5 5 5 5]
 [4 4 4 4 4 4 5 5 5 5]]","[[ 8  6]
 [ 7  7]
 [ 8  7]
 [ 9  7]
 [10  7]
 [ 7  8]
 [ 8  8]
 [ 9  8]
 [10  8]
 [ 6  9]
 [ 7  9]
 [ 8  9]
 [ 9  9]
 [10  9]
 [ 6 10]
 [ 7 10]
 [ 8 10]
 [ 9 10]
 [10 10]]","[190.         195.25343966 200.65213525 206.20010306 211.90147042
 217.76047878]",0.0276496823956,"[1.5   0.004 2.    1.   ]",NA,NA,NA,NA,NA,NA,NA,NA,NA,NA,NA,NA,0.0559208548147055,0.0337190260560254,NA,NA,0.718696236710915
"go","08-12-2022",11,"2",4,1,"0","0",28598,0,8,318.46022605896,23,3,2,3.60555127546399,2.5250048302392,0,1,1,"1",1,203.675098229652,206.200103059892,-2.5250048302392,4,"0.2","[[3 3 3 3 6 6 6 6 6 6]
 [3 3 3 3 6 6 6 6 6 6]
 [3 3 3 3 6 6 6 1 1 1]
 [3 3 3 2 2 1 1 1 1 1]
 [2 2 2 2 2 1 1 1 1 1]
 [2 2 2 2 2 1 1 1 1 1]
 [5 5 5 5 2 4 4 4 4 4]
 [5 5 5 5 4 4 4 4 4 4]
 [5 5 5 5 4 4 4 4 4 4]
 [5 5 5 5 4 4 4 4 4 4]]","[[3 3 3 3 6 6 6 6 6 6]
 [3 3 3 3 6 6 6 6 6 6]
 [3 3 3 3 6 6 6 1 1 1]
 [3 3 3 2 2 1 1 1 1 1]
 [2 2 2 2 2 1 1 1 1 1]
 [2 2 2 2 2 1 1 1 1 1]
 [5 5 5 5 2 4 4 4 4 4]
 [5 5 5 5 4 4 4 4 4 4]
 [5 5 5 5 4 4 4 4 4 4]
 [5 5 5 5 4 4 4 4 4 4]]","[[ 8  5]
 [ 9  5]
 [10  5]
 [ 7  6]
 [ 8  6]
 [ 9  6]
 [10  6]
 [ 7  7]
 [ 8  7]
 [ 9  7]
 [10  7]
 [ 7  8]
 [ 8  8]
 [ 9  8]
 [10  8]
 [ 7  9]
 [ 8  9]
 [ 9  9]
 [10  9]
 [ 7 10]
 [ 8 10]
 [ 9 10]
 [10 10]]","[190.         195.25343966 200.65213525 206.20010306 211.90147042
 217.76047878]",0.0276496823956,"[1.5   0.004 2.    1.   ]",NA,NA,NA,NA,NA,NA,NA,NA,NA,NA,NA,NA,0.0445019931693348,0.0445019931693348,NA,NA,0.513699364694837
"go","08-12-2022",12,"2",5,1,"0","1",56819,0,10,248.404264450073,10,1,-1.5,1.80277563773199,14.8954435761714,0,1,1,"1",0,202.865035199524,217.760478775696,-14.8954435761714,6,"0.2","[[4 4 4 4 4 1 1 1 1 1]
 [4 4 4 4 4 2 1 1 1 1]
 [4 4 4 4 2 2 2 2 1 1]
 [4 4 4 2 2 2 2 2 2 1]
 [5 6 6 6 2 2 2 2 2 2]
 [5 5 6 6 6 2 2 2 2 2]
 [5 5 5 6 6 6 3 3 3 3]
 [5 5 5 5 6 3 3 3 3 3]
 [5 5 5 5 3 3 3 3 3 3]
 [5 5 5 5 3 3 3 3 3 3]]","[[4 4 4 4 4 1 1 1 1 1]
 [4 4 4 4 4 2 1 1 1 1]
 [4 4 4 4 2 2 2 2 1 1]
 [4 4 4 2 2 2 2 2 2 1]
 [5 6 6 6 2 2 2 2 2 2]
 [5 5 6 6 6 2 2 2 2 2]
 [5 5 5 6 6 6 3 3 3 3]
 [5 5 5 5 6 3 3 3 3 3]
 [5 5 5 5 3 3 3 3 3 3]
 [5 5 5 5 3 3 3 3 3 3]]","[[5 2]
 [5 3]
 [6 3]
 [5 4]
 [6 4]
 [7 4]
 [6 5]
 [7 5]
 [8 5]
 [7 6]]","[190.         195.25343966 200.65213525 206.20010306 211.90147042
 217.76047878]",0.0276496823956,"[1.5   0.004 2.    1.   ]",NA,NA,NA,NA,NA,NA,NA,NA,NA,NA,NA,NA,0.0759021722938554,0.0759021722938554,NA,NA,0.400922724608631
"go","08-12-2022",13,"2",5,1,"0","1",74043,0,10,198.403120040894,8,-0.5,-1,1.11803398874989,-9.70552510054009,0,1,1,"1",0,204.958964755704,195.253439655164,9.70552510054009,2,"0.2","[[1 1 1 1 1 3 6 6 6 6]
 [1 1 1 1 1 3 3 6 6 6]
 [1 1 1 1 3 3 3 6 6 6]
 [1 1 1 2 2 3 3 3 6 6]
 [4 1 2 2 2 2 3 3 3 6]
 [4 4 4 2 2 5 5 5 3 6]
 [4 4 4 5 5 5 5 5 5 5]
 [4 4 4 5 5 5 5 5 5 5]
 [4 4 4 4 5 5 5 5 5 5]
 [4 4 4 4 5 5 5 5 5 5]]","[[1 1 1 1 1 3 6 6 6 6]
 [1 1 1 1 1 3 3 6 6 6]
 [1 1 1 1 3 3 3 6 6 6]
 [1 1 1 2 2 3 3 3 6 6]
 [4 1 2 2 2 2 3 3 3 6]
 [4 4 4 2 2 5 5 5 3 6]
 [4 4 4 5 5 5 5 5 5 5]
 [4 4 4 5 5 5 5 5 5 5]
 [4 4 4 4 5 5 5 5 5 5]
 [4 4 4 4 5 5 5 5 5 5]]","[[5 3]
 [4 4]
 [5 4]
 [6 4]
 [4 5]
 [5 5]
 [6 5]
 [5 6]]","[190.         195.25343966 200.65213525 206.20010306 211.90147042
 217.76047878]",0.0276496823956,"[1.5   0.004 2.    1.   ]",NA,NA,NA,NA,NA,NA,NA,NA,NA,NA,NA,NA,0.0549841590497226,0.0549841590497226,NA,NA,0.434135877096241
"go","08-12-2022",14,"2",2,2,"0","0",76018,0,4,398.454427719116,11,-3.5,3,4.60977222864644,-14.2817600529079,0,1,1,"1",1,204.281760052908,190,14.2817600529079,1,"1","[[3 3 3 3 3 3 1 1 1 1]
 [3 3 3 3 3 3 1 1 1 1]
 [6 6 6 3 3 3 5 1 1 1]
 [6 6 6 6 6 6 5 5 5 5]
 [6 6 6 6 6 4 5 5 5 5]
 [6 6 6 6 4 4 4 5 5 5]
 [6 2 2 2 2 4 4 4 5 5]
 [2 2 2 2 2 4 4 4 4 4]
 [2 2 2 2 2 2 4 4 4 4]
 [2 2 2 2 2 2 4 4 4 4]]","[[3 3 3 3 3 3 1 1 1 1]
 [3 3 3 3 3 3 1 1 1 1]
 [6 6 6 3 3 3 5 1 1 1]
 [6 6 6 6 6 6 5 5 5 5]
 [6 6 6 6 6 4 5 5 5 5]
 [6 6 6 6 4 4 4 5 5 5]
 [6 2 2 2 2 4 4 4 5 5]
 [2 2 2 2 2 4 4 4 4 4]
 [2 2 2 2 2 2 4 4 4 4]
 [2 2 2 2 2 2 4 4 4 4]]","[[ 1  7]
 [ 2  7]
 [ 1  8]
 [ 2  8]
 [ 3  8]
 [ 1  9]
 [ 2  9]
 [ 3  9]
 [ 1 10]
 [ 2 10]
 [ 3 10]]","[190.         195.25343966 200.65213525 206.20010306 211.90147042
 217.76047878]",0.0276496823956,"[1.5   0.004 2.    1.   ]",NA,NA,NA,NA,NA,NA,NA,NA,NA,NA,NA,NA,0.0312028475290007,0.0025102591884235,NA,NA,0.716927619555713
"go","08-12-2022",16,"2",3,1,"0","1",36911,0,6,208.471536636353,4,-1.5,2,2.5,16.5582921143259,0,1,1,"1",0,201.20218666137,217.760478775696,-16.5582921143259,6,"0.2","[[2 2 2 2 2 2 2 5 5 5]
 [2 2 2 2 2 2 5 5 5 5]
 [2 2 2 2 2 2 6 5 5 5]
 [2 2 2 2 2 3 6 6 5 5]
 [4 4 2 3 3 3 3 6 5 5]
 [4 4 4 4 3 3 3 1 1 1]
 [4 4 4 4 4 4 1 1 1 1]
 [4 4 4 4 4 4 1 1 1 1]
 [4 4 4 4 4 4 1 1 1 1]
 [4 4 4 4 4 4 1 1 1 1]]","[[2 2 2 2 2 2 2 5 5 5]
 [2 2 2 2 2 2 5 5 5 5]
 [2 2 2 2 2 2 6 5 5 5]
 [2 2 2 2 2 3 6 6 5 5]
 [4 4 2 3 3 3 3 6 5 5]
 [4 4 4 4 3 3 3 1 1 1]
 [4 4 4 4 4 4 1 1 1 1]
 [4 4 4 4 4 4 1 1 1 1]
 [4 4 4 4 4 4 1 1 1 1]
 [4 4 4 4 4 4 1 1 1 1]]","[[3 7]
 [4 7]
 [4 8]
 [5 8]]","[190.         195.25343966 200.65213525 206.20010306 211.90147042
 217.76047878]",0.0276496823956,"[1.5   0.004 2.    1.   ]",NA,NA,NA,NA,NA,NA,NA,NA,NA,NA,NA,NA,0.0957098439588348,0.070797134138272,NA,NA,0.492923467535746
"go","08-12-2022",18,"2",5,2,"0","0",14624,0,10,278.403759002686,19,-1,2,2.23606797749979,-13.6394813390547,0,1,1,"1",1,203.639481339055,190,13.6394813390547,1,"1","[[4 4 4 4 4 2 2 2 2 2]
 [6 6 4 4 4 2 2 2 2 2]
 [6 6 6 4 4 2 2 2 1 1]
 [6 6 6 6 1 1 1 1 1 1]
 [6 6 6 6 1 1 1 1 1 1]
 [6 6 6 3 3 1 1 1 1 1]
 [6 3 3 3 3 5 5 5 5 5]
 [3 3 3 3 3 5 5 5 5 5]
 [3 3 3 3 3 5 5 5 5 5]
 [3 3 3 3 3 5 5 5 5 5]]","[[4 4 4 4 4 2 2 2 2 2]
 [6 6 4 4 4 2 2 2 2 2]
 [6 6 6 4 4 2 2 2 1 1]
 [6 6 6 6 1 1 1 1 1 1]
 [6 6 6 6 1 1 1 1 1 1]
 [6 6 6 3 3 1 1 1 1 1]
 [6 3 3 3 3 5 5 5 5 5]
 [3 3 3 3 3 5 5 5 5 5]
 [3 3 3 3 3 5 5 5 5 5]
 [3 3 3 3 3 5 5 5 5 5]]","[[ 4  5]
 [ 5  5]
 [ 4  6]
 [ 5  6]
 [ 6  6]
 [ 4  7]
 [ 5  7]
 [ 6  7]
 [ 4  8]
 [ 5  8]
 [ 6  8]
 [ 3  9]
 [ 4  9]
 [ 5  9]
 [ 6  9]
 [ 3 10]
 [ 4 10]
 [ 5 10]
 [ 6 10]]","[190.         195.25343966 200.65213525 206.20010306 211.90147042
 217.76047878]",0.0276496823956,"[1.5   0.004 2.    1.   ]",NA,NA,NA,NA,NA,NA,NA,NA,NA,NA,NA,NA,0.0312381584222081,0.0312381584222081,NA,NA,0.543790769286281
"go","08-12-2022",21,"2",4,2,"0","1",87540,0,8,248.3811378479,15,-3.5,2,4.03112887414927,1.07507625695146,5.88385284466728e-14,1,1,"1",0,205.12502680294,206.200103059892,-1.07507625695146,4,"1","[[5 5 5 5 4 4 4 4 4 4]
 [5 5 5 5 4 4 4 4 4 4]
 [5 5 5 1 1 4 4 4 2 2]
 [5 5 5 1 1 2 2 2 2 2]
 [5 5 1 1 1 2 2 2 2 2]
 [5 1 1 1 1 2 2 2 2 3]
 [6 6 6 6 6 3 3 3 3 3]
 [6 6 6 6 6 3 3 3 3 3]
 [6 6 6 6 6 6 3 3 3 3]
 [6 6 6 6 6 6 3 3 3 3]]","[[5 5 5 5 4 4 4 4 4 4]
 [5 5 5 5 4 4 4 4 4 4]
 [5 5 5 1 1 4 4 4 2 2]
 [5 5 5 1 1 2 2 2 2 2]
 [5 5 1 1 1 2 2 2 2 2]
 [5 1 1 1 1 2 2 2 2 3]
 [6 6 6 6 6 3 3 3 3 3]
 [6 6 6 6 6 3 3 3 3 3]
 [6 6 6 6 6 6 3 3 3 3]
 [6 6 6 6 6 6 3 3 3 3]]","[[ 1  5]
 [ 2  5]
 [ 1  6]
 [ 2  6]
 [ 3  6]
 [ 1  7]
 [ 2  7]
 [ 3  7]
 [ 1  8]
 [ 2  8]
 [ 3  8]
 [ 1  9]
 [ 2  9]
 [ 1 10]
 [ 2 10]]","[190.         195.25343966 200.65213525 206.20010306 211.90147042
 217.76047878]",0.0276496823956,"[1.5   0.004 2.    1.   ]",NA,NA,NA,NA,NA,NA,NA,NA,NA,NA,NA,NA,0.0446142396923984,0.0446142396923984,NA,NA,0.638231250997641
"go","08-12-2022",22,"2",2,1,"0","1",52306,0,4,228.391170501709,20,1.5,-3,3.35410196624968,14.207859005906,2.9160058604849e-14,1,1,"1",0,203.55261976979,217.760478775696,-14.207859005906,6,"0.2","[[2 2 2 2 5 5 5 5 5 5]
 [2 2 2 2 5 5 5 5 5 5]
 [2 2 2 4 4 5 5 5 5 5]
 [6 6 6 4 4 4 4 1 1 1]
 [6 6 6 4 4 4 1 1 1 1]
 [6 6 6 6 4 4 1 1 1 1]
 [6 6 6 3 3 3 1 1 1 1]
 [6 6 6 3 3 3 3 1 1 1]
 [6 6 3 3 3 3 3 1 1 1]
 [6 6 3 3 3 3 3 3 1 1]]","[[2 2 2 2 5 5 5 5 5 5]
 [2 2 2 2 5 5 5 5 5 5]
 [2 2 2 4 4 5 5 5 5 5]
 [6 6 6 4 4 4 4 1 1 1]
 [6 6 6 4 4 4 1 1 1 1]
 [6 6 6 6 4 4 1 1 1 1]
 [6 6 6 3 3 3 1 1 1 1]
 [6 6 6 3 3 3 3 1 1 1]
 [6 6 3 3 3 3 3 1 1 1]
 [6 6 3 3 3 3 3 3 1 1]]","[[ 4  1]
 [ 5  1]
 [ 6  1]
 [ 7  1]
 [ 8  1]
 [ 9  1]
 [10  1]
 [ 4  2]
 [ 5  2]
 [ 6  2]
 [ 7  2]
 [ 8  2]
 [ 9  2]
 [10  2]
 [ 4  3]
 [ 5  3]
 [ 6  3]
 [ 7  3]
 [ 8  3]
 [ 6  4]]","[190.         195.25343966 200.65213525 206.20010306 211.90147042
 217.76047878]",0.0276496823956,"[1.5   0.004 2.    1.   ]",NA,NA,NA,NA,NA,NA,NA,NA,NA,NA,NA,NA,0.0288136113987741,0.0020664316308102,NA,NA,0.659252892736516
"go","08-12-2022",23,"2",4,1,"0","0",35974,0,8,278.489112854004,14,3.5,-2.5,4.30116263352131,-3.53322559114491,0,1,1,"1",1,204.185360839423,200.652135248278,3.53322559114491,3,"0.2","[[5 5 5 5 5 2 2 2 2 2]
 [5 5 5 5 5 2 2 2 2 2]
 [4 5 5 5 5 5 2 2 2 2]
 [4 4 4 5 5 5 6 6 6 6]
 [4 4 4 4 4 5 6 6 6 6]
 [4 4 4 4 4 6 6 6 6 6]
 [4 4 4 4 4 1 1 6 6 6]
 [3 3 3 3 1 1 1 1 1 6]
 [3 3 3 3 3 1 1 1 1 1]
 [3 3 3 3 3 1 1 1 1 1]]","[[5 5 5 5 5 2 2 2 2 2]
 [5 5 5 5 5 2 2 2 2 2]
 [4 5 5 5 5 5 2 2 2 2]
 [4 4 4 5 5 5 6 6 6 6]
 [4 4 4 4 4 5 6 6 6 6]
 [4 4 4 4 4 6 6 6 6 6]
 [4 4 4 4 4 1 1 6 6 6]
 [3 3 3 3 1 1 1 1 1 6]
 [3 3 3 3 3 1 1 1 1 1]
 [3 3 3 3 3 1 1 1 1 1]]","[[ 8  1]
 [ 9  1]
 [10  1]
 [ 8  2]
 [ 9  2]
 [10  2]
 [ 8  3]
 [ 9  3]
 [10  3]
 [ 8  4]
 [ 9  4]
 [10  4]
 [ 9  5]
 [10  5]]","[190.         195.25343966 200.65213525 206.20010306 211.90147042
 217.76047878]",0.0276496823956,"[1.5   0.004 2.    1.   ]",NA,NA,NA,NA,NA,NA,NA,NA,NA,NA,NA,NA,0.0474308002219722,0.0226173688871333,NA,NA,0.508919490510547
"go","08-12-2022",26,"2",1,2,"0","0",64774,0,2,228.390455245972,16,-3,-2.5,3.90512483795333,-14.9747644841115,0,1,1,"1",1,204.974764484111,190,14.9747644841115,1,"1","[[1 1 1 1 1 3 3 3 3 3]
 [1 1 1 1 1 3 3 3 3 3]
 [1 1 1 1 5 3 3 3 3 2]
 [1 1 5 5 5 3 3 2 2 2]
 [5 5 5 5 5 5 2 2 2 2]
 [5 5 5 5 5 5 2 2 2 2]
 [5 5 5 5 6 6 4 4 4 4]
 [6 6 6 6 6 6 4 4 4 4]
 [6 6 6 6 6 6 4 4 4 4]
 [6 6 6 6 6 6 6 4 4 4]]","[[1 1 1 1 1 3 3 3 3 3]
 [1 1 1 1 1 3 3 3 3 3]
 [1 1 1 1 5 3 3 3 3 2]
 [1 1 5 5 5 3 3 2 2 2]
 [5 5 5 5 5 5 2 2 2 2]
 [5 5 5 5 5 5 2 2 2 2]
 [5 5 5 5 6 6 4 4 4 4]
 [6 6 6 6 6 6 4 4 4 4]
 [6 6 6 6 6 6 4 4 4 4]
 [6 6 6 6 6 6 6 4 4 4]]","[[1 1]
 [2 1]
 [3 1]
 [4 1]
 [1 2]
 [2 2]
 [3 2]
 [4 2]
 [1 3]
 [2 3]
 [3 3]
 [1 4]
 [2 4]
 [3 4]
 [1 5]
 [2 5]]","[190.         195.25343966 200.65213525 206.20010306 211.90147042
 217.76047878]",0.0276496823956,"[1.5   0.004 2.    1.   ]",NA,NA,NA,NA,NA,NA,NA,NA,NA,NA,NA,NA,0.05168276609283,0.0004818215004807,NA,NA,0.801564137648449
"go","08-12-2022",28,"2",5,2,"0","1",31790,0,10,418.45703125,11,-3.5,-2.5,4.30116263352131,9.66772369946219,2.98089403307288e-14,1,1,"1",0,202.233746719975,211.901470419438,-9.66772369946219,5,"1","[[5 5 5 5 5 1 1 1 1 1]
 [5 5 5 5 5 1 1 1 1 1]
 [4 4 4 4 5 1 1 1 1 1]
 [4 4 4 4 4 1 1 1 6 6]
 [4 4 4 4 4 6 6 6 6 6]
 [4 4 4 4 4 6 6 6 6 6]
 [2 2 2 2 2 3 3 3 6 6]
 [2 2 2 2 2 3 3 3 3 3]
 [2 2 2 2 2 2 3 3 3 3]
 [2 2 2 2 2 2 3 3 3 3]]","[[5 5 5 5 5 1 1 1 1 1]
 [5 5 5 5 5 1 1 1 1 1]
 [4 4 4 4 5 1 1 1 1 1]
 [4 4 4 4 4 1 1 1 6 6]
 [4 4 4 4 4 6 6 6 6 6]
 [4 4 4 4 4 6 6 6 6 6]
 [2 2 2 2 2 3 3 3 6 6]
 [2 2 2 2 2 3 3 3 3 3]
 [2 2 2 2 2 2 3 3 3 3]
 [2 2 2 2 2 2 3 3 3 3]]","[[1 1]
 [2 1]
 [1 2]
 [2 2]
 [1 3]
 [2 3]
 [1 4]
 [2 4]
 [1 5]
 [2 5]
 [3 5]]","[190.         195.25343966 200.65213525 206.20010306 211.90147042
 217.76047878]",0.0276496823956,"[1.5   0.004 2.    1.   ]",NA,NA,NA,NA,NA,NA,NA,NA,NA,NA,NA,NA,0.046366728122136,0.046366728122136,NA,NA,0.582924647654559
"go","08-12-2022",29,"2",4,1,"0","0",72838,0,9,288.400173187256,16,2.5,3,3.90512483795333,-2.25084839440257,0,1,1,"1",1,202.90298364268,200.652135248278,2.25084839440257,3,"0.2","[[5 5 5 5 5 5 6 1 1 1]
 [5 5 5 5 5 6 6 1 1 1]
 [5 5 4 4 6 6 6 1 1 1]
 [4 4 4 4 6 6 6 1 1 1]
 [4 4 4 4 6 6 6 1 1 1]
 [4 4 4 4 4 6 6 1 3 3]
 [4 4 2 2 2 6 6 3 3 3]
 [2 2 2 2 2 2 3 3 3 3]
 [2 2 2 2 2 2 3 3 3 3]
 [2 2 2 2 2 2 2 3 3 3]]","[[5 5 5 5 5 5 6 1 1 1]
 [5 5 5 5 5 6 6 1 1 1]
 [5 5 4 4 6 6 6 1 1 1]
 [4 4 4 4 6 6 6 1 1 1]
 [4 4 4 4 6 6 6 1 1 1]
 [4 4 4 4 4 6 6 1 3 3]
 [4 4 2 2 2 6 6 3 3 3]
 [2 2 2 2 2 2 3 3 3 3]
 [2 2 2 2 2 2 3 3 3 3]
 [2 2 2 2 2 2 2 3 3 3]]","[[ 8  7]
 [ 9  7]
 [ 7  8]
 [ 8  8]
 [ 9  8]
 [10  8]
 [ 6  9]
 [ 7  9]
 [ 8  9]
 [ 9  9]
 [10  9]
 [ 6 10]
 [ 7 10]
 [ 8 10]
 [ 9 10]
 [10 10]]","[190.         195.25343966 200.65213525 206.20010306 211.90147042
 217.76047878]",0.0276496823956,"[1.5   0.004 2.    1.   ]",NA,NA,NA,NA,NA,NA,NA,NA,NA,NA,NA,NA,0.0480079999656814,0.0480079999656814,NA,NA,0.507977268470444
"go","08-12-2022",30,"2",5,2,"0","1",35727,0,10,188.39955329895,16,-0.5,2,2.06155281280883,-13.6753860629286,0,1,1,"1",0,203.675386062929,190,13.6753860629286,1,"1","[[4 4 4 4 4 5 5 5 5 5]
 [4 4 4 4 4 5 5 5 5 5]
 [4 4 4 4 4 5 5 5 5 5]
 [2 2 2 4 1 1 1 1 5 5]
 [2 2 2 2 1 1 1 1 1 1]
 [2 2 2 2 1 1 1 1 1 1]
 [2 2 2 6 6 3 3 3 3 3]
 [2 6 6 6 6 3 3 3 3 3]
 [6 6 6 6 6 3 3 3 3 3]
 [6 6 6 6 6 3 3 3 3 3]]","[[4 4 4 4 4 5 5 5 5 5]
 [4 4 4 4 4 5 5 5 5 5]
 [4 4 4 4 4 5 5 5 5 5]
 [2 2 2 4 1 1 1 1 5 5]
 [2 2 2 2 1 1 1 1 1 1]
 [2 2 2 2 1 1 1 1 1 1]
 [2 2 2 6 6 3 3 3 3 3]
 [2 6 6 6 6 3 3 3 3 3]
 [6 6 6 6 6 3 3 3 3 3]
 [6 6 6 6 6 3 3 3 3 3]]","[[ 4  5]
 [ 5  5]
 [ 6  5]
 [ 4  6]
 [ 5  6]
 [ 6  6]
 [ 4  7]
 [ 5  7]
 [ 6  7]
 [ 4  8]
 [ 5  8]
 [ 6  8]
 [ 5  9]
 [ 6  9]
 [ 5 10]
 [ 6 10]]","[190.         195.25343966 200.65213525 206.20010306 211.90147042
 217.76047878]",0.0276496823956,"[1.5   0.004 2.    1.   ]",NA,NA,NA,NA,NA,NA,NA,NA,NA,NA,NA,NA,0.0221294359387337,0.0221294359387337,NA,NA,0.51993291209224
"go","08-12-2022",31,"2",1,1,"0","0",59754,0,2,238.468885421753,11,-2.5,-3,3.90512483795333,-14.2696933143515,0,1,1,"1",1,204.269693314351,190,14.2696933143515,1,"0.2","[[1 1 1 1 4 4 6 6 6 6]
 [1 1 1 4 4 4 6 6 6 6]
 [1 1 4 4 4 6 6 6 6 6]
 [1 4 4 4 4 6 6 6 6 6]
 [1 4 4 4 5 5 5 5 5 5]
 [3 3 3 3 3 5 5 5 5 5]
 [3 3 3 3 3 3 5 5 5 5]
 [3 3 3 3 3 3 2 2 2 2]
 [3 3 3 3 3 2 2 2 2 2]
 [3 3 3 3 2 2 2 2 2 2]]","[[1 1 1 1 4 4 6 6 6 6]
 [1 1 1 4 4 4 6 6 6 6]
 [1 1 4 4 4 6 6 6 6 6]
 [1 4 4 4 4 6 6 6 6 6]
 [1 4 4 4 5 5 5 5 5 5]
 [3 3 3 3 3 5 5 5 5 5]
 [3 3 3 3 3 3 5 5 5 5]
 [3 3 3 3 3 3 2 2 2 2]
 [3 3 3 3 3 2 2 2 2 2]
 [3 3 3 3 2 2 2 2 2 2]]","[[1 1]
 [2 1]
 [3 1]
 [4 1]
 [5 1]
 [1 2]
 [2 2]
 [3 2]
 [1 3]
 [2 3]
 [1 4]]","[190.         195.25343966 200.65213525 206.20010306 211.90147042
 217.76047878]",0.0276496823956,"[1.5   0.004 2.    1.   ]",NA,NA,NA,NA,NA,NA,NA,NA,NA,NA,NA,NA,0.051329217771847,0.0005402916598096,NA,NA,0.682275766051357
"go","08-12-2022",32,"2",1,1,"0","0",41172,0,2,298.406362533569,13,-3.5,2,4.03112887414927,14.2548920747149,2.9582253083989e-14,1,1,"1",1,203.505586700981,217.760478775696,-14.2548920747149,6,"0.2","[[3 3 3 3 6 6 6 6 6 6]
 [3 3 3 3 6 6 6 6 6 1]
 [3 3 3 3 6 6 1 1 1 1]
 [2 2 2 2 1 1 1 1 1 1]
 [2 2 2 2 4 1 1 1 1 1]
 [2 2 2 2 4 4 5 5 5 5]
 [2 2 2 4 4 4 5 5 5 5]
 [2 2 4 4 4 4 5 5 5 5]
 [2 4 4 4 4 4 5 5 5 5]
 [2 4 4 4 4 4 5 5 5 5]]","[[3 3 3 3 6 6 6 6 6 6]
 [3 3 3 3 6 6 6 6 6 1]
 [3 3 3 3 6 6 1 1 1 1]
 [2 2 2 2 1 1 1 1 1 1]
 [2 2 2 2 4 1 1 1 1 1]
 [2 2 2 2 4 4 5 5 5 5]
 [2 2 2 4 4 4 5 5 5 5]
 [2 2 4 4 4 4 5 5 5 5]
 [2 4 4 4 4 4 5 5 5 5]
 [2 4 4 4 4 4 5 5 5 5]]","[[ 1  5]
 [ 2  5]
 [ 3  5]
 [ 1  6]
 [ 2  6]
 [ 3  6]
 [ 1  7]
 [ 2  7]
 [ 1  8]
 [ 2  8]
 [ 1  9]
 [ 2  9]
 [ 1 10]]","[190.         195.25343966 200.65213525 206.20010306 211.90147042
 217.76047878]",0.0276496823956,"[1.5   0.004 2.    1.   ]",NA,NA,NA,NA,NA,NA,NA,NA,NA,NA,NA,NA,0.0388842882988935,8.42298381938699e-05,NA,NA,0.699629427428509
"go","08-12-2022",33,"2",2,1,"0","0",79764,0,4,228.401660919189,19,-3,-2,3.60555127546399,-13.4728336558477,0,1,1,"1",1,203.472833655848,190,13.4728336558477,1,"0.2","[[1 1 1 1 1 1 6 6 6 6]
 [1 1 1 1 1 6 6 6 6 6]
 [1 1 1 1 1 6 6 6 4 4]
 [3 3 1 1 1 6 6 4 4 4]
 [3 3 3 3 3 6 4 4 4 4]
 [3 3 3 3 2 5 5 5 5 4]
 [3 3 3 2 2 5 5 5 5 5]
 [3 3 2 2 2 5 5 5 5 5]
 [3 2 2 2 2 5 5 5 5 5]
 [2 2 2 2 2 2 5 5 5 5]]","[[1 1 1 1 1 1 6 6 6 6]
 [1 1 1 1 1 6 6 6 6 6]
 [1 1 1 1 1 6 6 6 4 4]
 [3 3 1 1 1 6 6 4 4 4]
 [3 3 3 3 3 6 4 4 4 4]
 [3 3 3 3 2 5 5 5 5 4]
 [3 3 3 2 2 5 5 5 5 5]
 [3 3 2 2 2 5 5 5 5 5]
 [3 2 2 2 2 5 5 5 5 5]
 [2 2 2 2 2 2 5 5 5 5]]","[[1 1]
 [2 1]
 [3 1]
 [1 2]
 [2 2]
 [3 2]
 [1 3]
 [2 3]
 [3 3]
 [4 3]
 [1 4]
 [2 4]
 [3 4]
 [4 4]
 [1 5]
 [2 5]
 [3 5]
 [4 5]
 [1 6]]","[190.         195.25343966 200.65213525 206.20010306 211.90147042
 217.76047878]",0.0276496823956,"[1.5   0.004 2.    1.   ]",NA,NA,NA,NA,NA,NA,NA,NA,NA,NA,NA,NA,0.0595302573885248,0.0060795596972807,NA,NA,0.612857981201921
"go","08-12-2022",34,"2",3,1,"0","1",59908,0,6,178.386211395264,17,3,-2.5,3.90512483795333,3.2240093537072,5.85928550210846e-14,1,1,"1",0,202.976093706184,206.200103059892,-3.2240093537072,4,"0.2","[[5 5 5 6 6 6 2 2 2 2]
 [5 5 5 6 6 6 2 2 2 2]
 [5 5 5 6 6 6 2 2 2 2]
 [5 5 5 6 6 6 3 3 3 3]
 [5 5 5 6 6 1 3 3 3 3]
 [5 5 6 1 1 1 1 3 3 3]
 [4 4 4 1 1 1 1 1 3 3]
 [4 4 4 4 1 1 1 1 3 3]
 [4 4 4 4 4 1 1 1 1 3]
 [4 4 4 4 4 1 1 1 1 1]]","[[5 5 5 6 6 6 2 2 2 2]
 [5 5 5 6 6 6 2 2 2 2]
 [5 5 5 6 6 6 2 2 2 2]
 [5 5 5 6 6 6 3 3 3 3]
 [5 5 5 6 6 1 3 3 3 3]
 [5 5 6 1 1 1 1 3 3 3]
 [4 4 4 1 1 1 1 1 3 3]
 [4 4 4 4 1 1 1 1 3 3]
 [4 4 4 4 4 1 1 1 1 3]
 [4 4 4 4 4 1 1 1 1 1]]","[[ 7  1]
 [ 8  1]
 [ 9  1]
 [10  1]
 [ 7  2]
 [ 8  2]
 [ 9  2]
 [10  2]
 [ 7  3]
 [ 8  3]
 [ 9  3]
 [10  3]
 [ 8  4]
 [ 9  4]
 [10  4]
 [ 9  5]
 [10  5]]","[190.         195.25343966 200.65213525 206.20010306 211.90147042
 217.76047878]",0.0276496823956,"[1.5   0.004 2.    1.   ]",NA,NA,NA,NA,NA,NA,NA,NA,NA,NA,NA,NA,0.055162030783421,0.0280377499431426,NA,NA,0.558858099791778
"go","08-12-2022",36,"2",2,2,"0","0",6489,0,4,238.396167755127,19,2.5,2.5,3.53553390593274,-5.27565498725869,0,1,1,"1",1,205.927790235536,200.652135248278,5.27565498725869,3,"1","[[2 2 2 2 1 4 4 4 4 4]
 [2 2 1 1 1 5 4 4 4 4]
 [2 1 1 1 5 5 4 4 4 4]
 [1 1 1 1 5 5 5 4 4 4]
 [1 1 1 1 5 5 5 5 4 4]
 [6 6 6 6 6 5 5 5 3 3]
 [6 6 6 6 6 6 3 3 3 3]
 [6 6 6 6 6 6 3 3 3 3]
 [6 6 6 6 6 6 3 3 3 3]
 [6 6 6 6 6 3 3 3 3 3]]","[[2 2 2 2 1 4 4 4 4 4]
 [2 2 1 1 1 5 4 4 4 4]
 [2 1 1 1 5 5 4 4 4 4]
 [1 1 1 1 5 5 5 4 4 4]
 [1 1 1 1 5 5 5 5 4 4]
 [6 6 6 6 6 5 5 5 3 3]
 [6 6 6 6 6 6 3 3 3 3]
 [6 6 6 6 6 6 3 3 3 3]
 [6 6 6 6 6 6 3 3 3 3]
 [6 6 6 6 6 3 3 3 3 3]]","[[10  6]
 [ 7  7]
 [ 8  7]
 [ 9  7]
 [10  7]
 [ 7  8]
 [ 8  8]
 [ 9  8]
 [10  8]
 [ 6  9]
 [ 7  9]
 [ 8  9]
 [ 9  9]
 [10  9]
 [ 6 10]
 [ 7 10]
 [ 8 10]
 [ 9 10]
 [10 10]]","[190.         195.25343966 200.65213525 206.20010306 211.90147042
 217.76047878]",0.0276496823956,"[1.5   0.004 2.    1.   ]",NA,NA,NA,NA,NA,NA,NA,NA,NA,NA,NA,NA,0.0869996471963818,0.05387019239041,NA,NA,0.820000145448046
"go","08-12-2022",39,"2",2,2,"0","0",50045,0,4,278.406381607056,26,3,1,3.16227766016838,13.5339731482062,2.89845701990588e-14,1,1,"1",1,204.22650562749,217.760478775696,-13.5339731482062,6,"1","[[3 3 3 3 5 5 5 5 5 5]
 [3 3 3 3 3 5 5 1 1 1]
 [3 3 3 3 3 1 1 1 1 1]
 [2 2 2 2 4 1 1 1 1 1]
 [2 2 2 4 4 1 1 1 1 1]
 [2 2 4 4 4 4 1 1 1 1]
 [2 4 4 4 4 6 6 6 6 6]
 [4 4 4 4 6 6 6 6 6 6]
 [4 4 4 6 6 6 6 6 6 6]
 [4 4 6 6 6 6 6 6 6 6]]","[[3 3 3 3 5 5 5 5 5 5]
 [3 3 3 3 3 5 5 1 1 1]
 [3 3 3 3 3 1 1 1 1 1]
 [2 2 2 2 4 1 1 1 1 1]
 [2 2 2 4 4 1 1 1 1 1]
 [2 2 4 4 4 4 1 1 1 1]
 [2 4 4 4 4 6 6 6 6 6]
 [4 4 4 4 6 6 6 6 6 6]
 [4 4 4 6 6 6 6 6 6 6]
 [4 4 6 6 6 6 6 6 6 6]]","[[10  3]
 [ 9  4]
 [10  4]
 [ 8  5]
 [ 9  5]
 [10  5]
 [ 7  6]
 [ 8  6]
 [ 9  6]
 [10  6]
 [ 7  7]
 [ 8  7]
 [ 9  7]
 [10  7]
 [ 7  8]
 [ 8  8]
 [ 9  8]
 [10  8]
 [ 7  9]
 [ 8  9]
 [ 9  9]
 [10  9]
 [ 7 10]
 [ 8 10]
 [ 9 10]
 [10 10]]","[190.         195.25343966 200.65213525 206.20010306 211.90147042
 217.76047878]",0.0276496823956,"[1.5   0.004 2.    1.   ]",NA,NA,NA,NA,NA,NA,NA,NA,NA,NA,NA,NA,0.0342302770786295,0.0014449063925161,NA,NA,0.723347175021253
"go","08-12-2022",40,"2",3,2,"0","1",75994,0,6,308.406352996826,8,-2.5,1.5,2.91547594742265,-10.4077237172366,0,1,1,"1",0,205.661163372401,195.253439655164,10.4077237172366,2,"1","[[1 1 1 1 1 2 6 6 6 6]
 [1 1 1 1 1 2 6 6 6 6]
 [3 3 1 1 1 2 2 6 6 6]
 [3 3 3 3 3 2 2 6 6 6]
 [3 3 3 3 4 4 2 2 6 6]
 [3 3 3 4 4 4 4 5 5 5]
 [3 4 4 4 4 4 5 5 5 5]
 [4 4 4 4 4 5 5 5 5 5]
 [4 4 4 4 5 5 5 5 5 5]
 [4 4 4 5 5 5 5 5 5 5]]","[[1 1 1 1 1 2 6 6 6 6]
 [1 1 1 1 1 2 6 6 6 6]
 [3 3 1 1 1 2 2 6 6 6]
 [3 3 3 3 3 2 2 6 6 6]
 [3 3 3 3 4 4 2 2 6 6]
 [3 3 3 4 4 4 4 5 5 5]
 [3 4 4 4 4 4 5 5 5 5]
 [4 4 4 4 4 5 5 5 5 5]
 [4 4 4 4 5 5 5 5 5 5]
 [4 4 4 5 5 5 5 5 5 5]]","[[1 6]
 [2 6]
 [3 6]
 [4 6]
 [3 7]
 [4 7]
 [5 7]
 [5 8]]","[190.         195.25343966 200.65213525 206.20010306 211.90147042
 217.76047878]",0.0276496823956,"[1.5   0.004 2.    1.   ]",NA,NA,NA,NA,NA,NA,NA,NA,NA,NA,NA,NA,0.0747300025724277,0.0494859567875152,NA,NA,0.756927473029867
"go","08-12-2022",45,"2",3,2,"0","0",38200,0,7,248.472213745117,17,-2.5,2,3.20156211871642,-14.0666879501125,0,1,1,"1",1,204.066687950113,190,14.0666879501125,1,"1","[[2 2 2 2 2 1 1 1 1 1]
 [2 2 2 2 2 1 1 1 1 3]
 [6 2 2 2 1 1 1 1 3 3]
 [6 6 6 6 1 1 1 3 3 3]
 [6 6 6 6 6 1 3 3 3 3]
 [6 6 6 6 6 4 3 3 3 3]
 [5 5 5 5 5 4 4 4 3 3]
 [5 5 5 5 5 4 4 4 4 4]
 [5 5 5 5 5 4 4 4 4 4]
 [5 5 5 5 5 5 4 4 4 4]]","[[2 2 2 2 2 1 1 1 1 1]
 [2 2 2 2 2 1 1 1 1 3]
 [6 2 2 2 1 1 1 1 3 3]
 [6 6 6 6 1 1 1 3 3 3]
 [6 6 6 6 6 1 3 3 3 3]
 [6 6 6 6 6 4 3 3 3 3]
 [5 5 5 5 5 4 4 4 3 3]
 [5 5 5 5 5 4 4 4 4 4]
 [5 5 5 5 5 4 4 4 4 4]
 [5 5 5 5 5 5 4 4 4 4]]","[[ 3  5]
 [ 4  5]
 [ 1  6]
 [ 2  6]
 [ 3  6]
 [ 4  6]
 [ 5  6]
 [ 1  7]
 [ 2  7]
 [ 3  7]
 [ 4  7]
 [ 1  8]
 [ 2  8]
 [ 3  8]
 [ 1  9]
 [ 2  9]
 [ 1 10]]","[190.         195.25343966 200.65213525 206.20010306 211.90147042
 217.76047878]",0.0276496823956,"[1.5   0.004 2.    1.   ]",NA,NA,NA,NA,NA,NA,NA,NA,NA,NA,NA,NA,0.0681924271412721,0.0681924271412721,NA,NA,0.744049078135803
"go","08-12-2022",48,"2",5,1,"0","1",68509,0,11,228.405714035034,6,-4,-2,4.47213595499958,9.09455009792058,0,1,1,"1",0,202.806920321517,211.901470419438,-9.09455009792058,5,"0.2","[[6 5 5 5 5 2 2 2 2 2]
 [6 6 6 5 5 2 2 2 2 2]
 [6 6 6 6 4 4 4 4 2 2]
 [6 6 6 6 4 4 4 4 4 4]
 [6 6 6 6 4 4 4 4 4 4]
 [6 6 6 1 4 4 4 4 4 4]
 [1 1 1 1 1 1 3 3 3 3]
 [1 1 1 1 1 3 3 3 3 3]
 [1 1 1 1 1 3 3 3 3 3]
 [1 1 1 1 1 3 3 3 3 3]]","[[6 5 5 5 5 2 2 2 2 2]
 [6 6 6 5 5 2 2 2 2 2]
 [6 6 6 6 4 4 4 4 2 2]
 [6 6 6 6 4 4 4 4 4 4]
 [6 6 6 6 4 4 4 4 4 4]
 [6 6 6 1 4 4 4 4 4 4]
 [1 1 1 1 1 1 3 3 3 3]
 [1 1 1 1 1 3 3 3 3 3]
 [1 1 1 1 1 3 3 3 3 3]
 [1 1 1 1 1 3 3 3 3 3]]","[[1 2]
 [1 3]
 [1 4]
 [2 4]
 [1 5]
 [2 5]]","[190.         195.25343966 200.65213525 206.20010306 211.90147042
 217.76047878]",0.0276496823956,"[1.5   0.004 2.    1.   ]",NA,NA,NA,NA,NA,NA,NA,NA,NA,NA,NA,NA,0.0608430288565479,0.0608430288565479,NA,NA,0.424759893191794
"go","08-12-2022",50,"2",1,2,"0","0",30509,0,2,288.400411605835,20,-2,-2.5,3.20156211871642,8.11860581629276,1.16640234419396e-13,1,1,"1",1,203.782864603145,211.901470419438,-8.11860581629276,5,"1","[[5 5 5 5 1 1 1 1 1 1]
 [5 5 5 5 5 1 1 1 1 1]
 [5 5 5 5 5 1 1 1 1 1]
 [5 5 5 2 2 3 3 1 1 1]
 [5 5 2 2 2 3 3 3 3 3]
 [5 2 2 2 4 3 3 3 3 3]
 [2 2 4 4 4 4 3 3 3 3]
 [4 4 4 4 4 4 6 6 6 6]
 [4 4 4 4 4 4 6 6 6 6]
 [4 4 4 4 4 6 6 6 6 6]]","[[5 5 5 5 1 1 1 1 1 1]
 [5 5 5 5 5 1 1 1 1 1]
 [5 5 5 5 5 1 1 1 1 1]
 [5 5 5 2 2 3 3 1 1 1]
 [5 5 2 2 2 3 3 3 3 3]
 [5 2 2 2 4 3 3 3 3 3]
 [2 2 4 4 4 4 3 3 3 3]
 [4 4 4 4 4 4 6 6 6 6]
 [4 4 4 4 4 4 6 6 6 6]
 [4 4 4 4 4 6 6 6 6 6]]","[[1 1]
 [2 1]
 [3 1]
 [4 1]
 [5 1]
 [6 1]
 [1 2]
 [2 2]
 [3 2]
 [4 2]
 [5 2]
 [1 3]
 [2 3]
 [3 3]
 [4 3]
 [1 4]
 [2 4]
 [3 4]
 [2 5]
 [3 5]]","[190.         195.25343966 200.65213525 206.20010306 211.90147042
 217.76047878]",0.0276496823956,"[1.5   0.004 2.    1.   ]",NA,NA,NA,NA,NA,NA,NA,NA,NA,NA,NA,NA,0.0250048642618316,0.0001972640624215,NA,NA,0.753134957932128
"go","08-12-2022",57,"2",1,1,"0","0",18581,0,2,368.457555770874,17,-3,-2.5,3.90512483795333,-11.973224592759,0,1,1,"1",1,201.973224592759,190,11.973224592759,1,"0.2","[[1 1 1 1 1 6 6 6 6 6]
 [1 1 1 1 1 6 6 6 6 6]
 [1 1 1 1 1 6 6 6 6 6]
 [1 1 4 4 5 5 5 5 6 6]
 [4 4 4 4 4 5 5 5 5 5]
 [3 4 4 4 4 2 2 2 2 2]
 [3 3 4 4 2 2 2 2 2 2]
 [3 3 3 4 2 2 2 2 2 2]
 [3 3 3 3 2 2 2 2 2 2]
 [3 3 3 3 2 2 2 2 2 2]]","[[1 1 1 1 1 6 6 6 6 6]
 [1 1 1 1 1 6 6 6 6 6]
 [1 1 1 1 1 6 6 6 6 6]
 [1 1 4 4 5 5 5 5 6 6]
 [4 4 4 4 4 5 5 5 5 5]
 [3 4 4 4 4 2 2 2 2 2]
 [3 3 4 4 2 2 2 2 2 2]
 [3 3 3 4 2 2 2 2 2 2]
 [3 3 3 3 2 2 2 2 2 2]
 [3 3 3 3 2 2 2 2 2 2]]","[[1 1]
 [2 1]
 [3 1]
 [4 1]
 [1 2]
 [2 2]
 [3 2]
 [4 2]
 [1 3]
 [2 3]
 [3 3]
 [1 4]
 [2 4]
 [3 4]
 [1 5]
 [2 5]
 [3 5]]","[190.         195.25343966 200.65213525 206.20010306 211.90147042
 217.76047878]",0.0276496823956,"[1.5   0.004 2.    1.   ]",NA,NA,NA,NA,NA,NA,NA,NA,NA,NA,NA,NA,0.0756749069316537,0.0001044328810759,NA,NA,0.646853499322652
"go","08-12-2022",58,"2",3,1,"0","0",54235,0,7,238.433361053467,13,3.5,2.5,4.30116263352131,-2.81771524558687,0,1,1,"1",1,203.469850493865,200.652135248278,2.81771524558687,3,"0.2","[[4 4 4 4 4 5 5 5 5 5]
 [4 4 4 4 4 5 5 5 5 5]
 [4 4 4 4 4 1 5 5 5 5]
 [4 4 4 4 4 1 1 1 1 5]
 [2 2 6 6 6 1 1 1 1 1]
 [2 2 6 6 6 1 1 1 1 1]
 [2 2 2 6 6 6 1 1 1 1]
 [2 2 2 6 6 6 3 3 3 3]
 [2 2 2 6 6 6 3 3 3 3]
 [2 2 2 6 6 3 3 3 3 3]]","[[4 4 4 4 4 5 5 5 5 5]
 [4 4 4 4 4 5 5 5 5 5]
 [4 4 4 4 4 1 5 5 5 5]
 [4 4 4 4 4 1 1 1 1 5]
 [2 2 6 6 6 1 1 1 1 1]
 [2 2 6 6 6 1 1 1 1 1]
 [2 2 2 6 6 6 1 1 1 1]
 [2 2 2 6 6 6 3 3 3 3]
 [2 2 2 6 6 6 3 3 3 3]
 [2 2 2 6 6 3 3 3 3 3]]","[[10  6]
 [ 8  7]
 [ 9  7]
 [10  7]
 [ 8  8]
 [ 9  8]
 [10  8]
 [ 8  9]
 [ 9  9]
 [10  9]
 [ 8 10]
 [ 9 10]
 [10 10]]","[190.         195.25343966 200.65213525 206.20010306 211.90147042
 217.76047878]",0.0276496823956,"[1.5   0.004 2.    1.   ]",NA,NA,NA,NA,NA,NA,NA,NA,NA,NA,NA,NA,0.0108401110469896,0.0031696443156189,NA,NA,0.628553546811473
"go","08-12-2022",59,"2",3,1,"0","1",39129,0,6,298.403263092041,29,0.5,3,3.04138126514911,5.35884979723164,1.44623937955858e-13,1,1,"1",0,206.542620622206,211.901470419438,-5.35884979723164,5,"0.2","[[2 2 2 3 3 3 3 3 3 3]
 [2 2 2 2 3 3 3 3 3 5]
 [4 2 2 2 2 1 1 1 5 5]
 [4 4 4 2 1 1 1 5 5 5]
 [4 4 4 1 1 1 1 5 5 5]
 [4 4 6 6 1 1 5 5 5 5]
 [4 6 6 6 6 1 5 5 5 5]
 [6 6 6 6 6 6 5 5 5 5]
 [6 6 6 6 6 6 5 5 5 5]
 [6 6 6 6 6 6 5 5 5 5]]","[[2 2 2 3 3 3 3 3 3 3]
 [2 2 2 2 3 3 3 3 3 5]
 [4 2 2 2 2 1 1 1 5 5]
 [4 4 4 2 1 1 1 5 5 5]
 [4 4 4 1 1 1 1 5 5 5]
 [4 4 6 6 1 1 5 5 5 5]
 [4 6 6 6 6 1 5 5 5 5]
 [6 6 6 6 6 6 5 5 5 5]
 [6 6 6 6 6 6 5 5 5 5]
 [6 6 6 6 6 6 5 5 5 5]]","[[ 6  7]
 [ 7  7]
 [ 8  7]
 [ 9  7]
 [10  7]
 [ 4  8]
 [ 5  8]
 [ 6  8]
 [ 7  8]
 [ 8  8]
 [ 9  8]
 [10  8]
 [ 3  9]
 [ 4  9]
 [ 5  9]
 [ 6  9]
 [ 7  9]
 [ 8  9]
 [ 9  9]
 [10  9]
 [ 2 10]
 [ 3 10]
 [ 4 10]
 [ 5 10]
 [ 6 10]
 [ 7 10]
 [ 8 10]
 [ 9 10]
 [10 10]]","[190.         195.25343966 200.65213525 206.20010306 211.90147042
 217.76047878]",0.0276496823956,"[1.5   0.004 2.    1.   ]",NA,NA,NA,NA,NA,NA,NA,NA,NA,NA,NA,NA,0.0441083725362271,0.0241459032746735,NA,NA,0.57657418663616
"go","08-12-2022",61,"2",4,2,"0","1",61023,0,8,18.4547901153564,18,-3,2.5,3.90512483795333,-7.11225152017761,5.84913954557495e-14,1,1,"1",0,202.365691175342,195.253439655164,7.11225152017761,2,"1","[[1 1 1 1 1 2 2 2 2 2]
 [1 1 1 1 1 2 2 2 2 2]
 [1 1 1 1 1 1 2 2 2 2]
 [1 1 1 1 1 1 2 2 2 2]
 [4 4 4 4 4 6 6 6 6 3]
 [4 4 4 4 4 6 6 6 6 3]
 [5 5 4 4 4 6 6 6 3 3]
 [5 5 5 5 5 6 6 3 3 3]
 [5 5 5 5 5 6 3 3 3 3]
 [5 5 5 5 5 3 3 3 3 3]]","[[1 1 1 1 1 2 2 2 2 2]
 [1 1 1 1 1 2 2 2 2 2]
 [1 1 1 1 1 1 2 2 2 2]
 [1 1 1 1 1 1 2 2 2 2]
 [4 4 4 4 4 6 6 6 6 3]
 [4 4 4 4 4 6 6 6 6 3]
 [5 5 4 4 4 6 6 6 3 3]
 [5 5 5 5 5 6 6 3 3 3]
 [5 5 5 5 5 6 3 3 3 3]
 [5 5 5 5 5 3 3 3 3 3]]","[[ 1  6]
 [ 2  6]
 [ 1  7]
 [ 2  7]
 [ 3  7]
 [ 4  7]
 [ 1  8]
 [ 2  8]
 [ 3  8]
 [ 4  8]
 [ 1  9]
 [ 2  9]
 [ 3  9]
 [ 4  9]
 [ 1 10]
 [ 2 10]
 [ 3 10]
 [ 4 10]]","[190.         195.25343966 200.65213525 206.20010306 211.90147042
 217.76047878]",0.0276496823956,"[1.5   0.004 2.    1.   ]",NA,NA,NA,NA,NA,NA,NA,NA,NA,NA,NA,NA,0.0521491891984709,0.0521491891984709,NA,NA,0.65632865058808
"go","08-12-2022",64,"2",1,2,"0","0",64971,0,2,278.477430343628,20,3,-2.5,3.90512483795333,-8.71004038291724,5.8320117209698e-14,1,1,"1",1,203.963480038081,195.253439655164,8.71004038291724,2,"1","[[1 1 1 1 1 1 1 4 4 4]
 [5 1 1 1 1 1 1 4 4 4]
 [5 5 5 5 1 1 4 4 4 4]
 [5 5 5 5 5 5 4 4 4 4]
 [5 5 5 5 5 5 3 3 3 3]
 [5 5 5 5 5 6 6 3 3 3]
 [2 2 2 2 2 6 6 6 3 3]
 [2 2 2 2 2 6 6 6 3 3]
 [2 2 2 2 2 6 6 6 6 3]
 [2 2 2 2 2 6 6 6 6 3]]","[[1 1 1 1 1 1 1 4 4 4]
 [5 1 1 1 1 1 1 4 4 4]
 [5 5 5 5 1 1 4 4 4 4]
 [5 5 5 5 5 5 4 4 4 4]
 [5 5 5 5 5 5 3 3 3 3]
 [5 5 5 5 5 6 6 3 3 3]
 [2 2 2 2 2 6 6 6 3 3]
 [2 2 2 2 2 6 6 6 3 3]
 [2 2 2 2 2 6 6 6 6 3]
 [2 2 2 2 2 6 6 6 6 3]]","[[ 7  1]
 [ 8  1]
 [ 9  1]
 [10  1]
 [ 7  2]
 [ 8  2]
 [ 9  2]
 [10  2]
 [ 7  3]
 [ 8  3]
 [ 9  3]
 [10  3]
 [ 7  4]
 [ 8  4]
 [ 9  4]
 [10  4]
 [ 7  5]
 [ 8  5]
 [ 9  5]
 [10  5]]","[190.         195.25343966 200.65213525 206.20010306 211.90147042
 217.76047878]",0.0276496823956,"[1.5   0.004 2.    1.   ]",NA,NA,NA,NA,NA,NA,NA,NA,NA,NA,NA,NA,0.0313512952376326,0.0001011342396081,NA,NA,0.765339147008445
"go","08-12-2022",65,"2",4,2,"0","1",55204,0,9,288.549423217773,12,-1,2.5,2.69258240356725,-7.59407863085238,2.96855073353921e-14,1,1,"1",0,202.847518286016,195.253439655164,7.59407863085238,2,"1","[[5 5 5 4 3 3 3 3 3 3]
 [5 5 5 4 4 3 3 3 3 3]
 [5 5 5 4 4 2 3 3 3 3]
 [5 5 5 4 4 2 2 2 2 3]
 [5 5 5 4 6 2 2 2 2 2]
 [5 5 5 6 6 6 6 6 2 2]
 [1 1 1 1 6 6 6 6 6 6]
 [1 1 1 1 1 1 6 6 6 6]
 [1 1 1 1 1 1 1 1 6 6]
 [1 1 1 1 1 1 1 1 1 6]]","[[5 5 5 4 3 3 3 3 3 3]
 [5 5 5 4 4 3 3 3 3 3]
 [5 5 5 4 4 2 3 3 3 3]
 [5 5 5 4 4 2 2 2 2 3]
 [5 5 5 4 6 2 2 2 2 2]
 [5 5 5 6 6 6 6 6 2 2]
 [1 1 1 1 6 6 6 6 6 6]
 [1 1 1 1 1 1 6 6 6 6]
 [1 1 1 1 1 1 1 1 6 6]
 [1 1 1 1 1 1 1 1 1 6]]","[[ 3  6]
 [ 4  6]
 [ 5  6]
 [ 4  7]
 [ 5  7]
 [ 4  8]
 [ 5  8]
 [ 4  9]
 [ 5  9]
 [ 6  9]
 [ 5 10]
 [ 6 10]]","[190.         195.25343966 200.65213525 206.20010306 211.90147042
 217.76047878]",0.0276496823956,"[1.5   0.004 2.    1.   ]",NA,NA,NA,NA,NA,NA,NA,NA,NA,NA,NA,NA,0.0787342667521522,0.0787342667521522,NA,NA,0.716404409957578
"go","08-12-2022",66,"2",2,2,"0","0",83899,0,4,308.452844619751,9,-4,-2.5,4.7169905660283,-3.69111664478061,0,1,1,"1",1,204.343251893058,200.652135248278,3.69111664478061,3,"1","[[3 3 3 3 3 1 1 1 1 1]
 [3 3 3 3 6 1 1 1 1 5]
 [6 6 6 6 6 1 1 5 5 5]
 [6 6 6 6 6 6 5 5 5 5]
 [6 6 6 6 6 6 5 5 5 5]
 [2 2 2 2 6 4 4 5 5 5]
 [2 2 2 2 2 4 4 4 4 4]
 [2 2 2 2 2 4 4 4 4 4]
 [2 2 2 2 2 4 4 4 4 4]
 [2 2 2 2 2 4 4 4 4 4]]","[[3 3 3 3 3 1 1 1 1 1]
 [3 3 3 3 6 1 1 1 1 5]
 [6 6 6 6 6 1 1 5 5 5]
 [6 6 6 6 6 6 5 5 5 5]
 [6 6 6 6 6 6 5 5 5 5]
 [2 2 2 2 6 4 4 5 5 5]
 [2 2 2 2 2 4 4 4 4 4]
 [2 2 2 2 2 4 4 4 4 4]
 [2 2 2 2 2 4 4 4 4 4]
 [2 2 2 2 2 4 4 4 4 4]]","[[1 1]
 [2 1]
 [1 2]
 [2 2]
 [1 3]
 [2 3]
 [1 4]
 [2 4]
 [1 5]]","[190.         195.25343966 200.65213525 206.20010306 211.90147042
 217.76047878]",0.0276496823956,"[1.5   0.004 2.    1.   ]",NA,NA,NA,NA,NA,NA,NA,NA,NA,NA,NA,NA,0.023717502097319,0.0015065059563291,NA,NA,0.700674919289584
"go","08-12-2022",71,"2",1,1,"0","0",25926,0,2,558.466911315918,17,3,2.5,3.90512483795333,-12.4402762467028,0,1,1,"1",1,202.440276246703,190,12.4402762467028,1,"0.2","[[6 6 6 6 6 2 2 2 2 2]
 [3 3 6 6 6 2 2 2 2 2]
 [3 3 3 3 2 2 2 2 2 2]
 [3 3 3 3 3 2 2 2 2 2]
 [3 3 3 3 4 4 4 4 4 4]
 [3 3 5 5 5 4 4 4 4 4]
 [5 5 5 5 5 4 4 4 1 1]
 [5 5 5 5 5 1 1 1 1 1]
 [5 5 5 5 5 1 1 1 1 1]
 [5 5 5 5 5 1 1 1 1 1]]","[[6 6 6 6 6 2 2 2 2 2]
 [3 3 6 6 6 2 2 2 2 2]
 [3 3 3 3 2 2 2 2 2 2]
 [3 3 3 3 3 2 2 2 2 2]
 [3 3 3 3 4 4 4 4 4 4]
 [3 3 5 5 5 4 4 4 4 4]
 [5 5 5 5 5 4 4 4 1 1]
 [5 5 5 5 5 1 1 1 1 1]
 [5 5 5 5 5 1 1 1 1 1]
 [5 5 5 5 5 1 1 1 1 1]]","[[ 8  6]
 [ 9  6]
 [10  6]
 [ 8  7]
 [ 9  7]
 [10  7]
 [ 8  8]
 [ 9  8]
 [10  8]
 [ 7  9]
 [ 8  9]
 [ 9  9]
 [10  9]
 [ 7 10]
 [ 8 10]
 [ 9 10]
 [10 10]]","[190.         195.25343966 200.65213525 206.20010306 211.90147042
 217.76047878]",0.0276496823956,"[1.5   0.004 2.    1.   ]",NA,NA,NA,NA,NA,NA,NA,NA,NA,NA,NA,NA,0.0242272296888457,0.0001252434351375,NA,NA,0.719355324834818
"go","08-12-2022",72,"2",2,1,"0","0",31755,0,4,228.471517562866,13,0,-1.5,1.5,-14.9366520582671,0,1,1,"1",1,204.936652058267,190,14.9366520582671,1,"0.2","[[3 3 3 3 3 2 2 2 2 2]
 [3 3 3 3 3 2 2 2 2 6]
 [3 3 3 3 3 2 2 2 6 6]
 [4 1 1 1 1 1 6 6 6 6]
 [4 4 1 1 1 1 6 6 6 6]
 [4 4 4 1 1 1 5 6 6 6]
 [4 4 4 4 1 5 5 5 5 6]
 [4 4 4 4 4 5 5 5 5 5]
 [4 4 4 4 5 5 5 5 5 5]
 [4 4 4 4 5 5 5 5 5 5]]","[[3 3 3 3 3 2 2 2 2 2]
 [3 3 3 3 3 2 2 2 2 6]
 [3 3 3 3 3 2 2 2 6 6]
 [4 1 1 1 1 1 6 6 6 6]
 [4 4 1 1 1 1 6 6 6 6]
 [4 4 4 1 1 1 5 6 6 6]
 [4 4 4 4 1 5 5 5 5 6]
 [4 4 4 4 4 5 5 5 5 5]
 [4 4 4 4 5 5 5 5 5 5]
 [4 4 4 4 5 5 5 5 5 5]]","[[4 2]
 [4 3]
 [5 3]
 [4 4]
 [5 4]
 [6 4]
 [4 5]
 [5 5]
 [6 5]
 [7 5]
 [4 6]
 [5 6]
 [6 6]]","[190.         195.25343966 200.65213525 206.20010306 211.90147042
 217.76047878]",0.0276496823956,"[1.5   0.004 2.    1.   ]",NA,NA,NA,NA,NA,NA,NA,NA,NA,NA,NA,NA,0.0485546975474944,0.0158304315598463,NA,NA,0.629722897041503
"go","08-12-2022",73,"2",1,2,"0","0",62486,0,2,68.3894157409668,19,1,-2.5,2.69258240356725,-14.1990062089239,0,1,1,"1",1,204.199006208924,190,14.1990062089239,1,"1","[[5 5 5 5 5 2 2 2 2 2]
 [5 5 5 5 5 2 2 2 2 2]
 [5 5 5 5 5 4 4 4 2 2]
 [5 5 5 1 1 4 4 4 4 4]
 [1 1 1 1 1 4 4 4 4 4]
 [1 1 1 1 1 4 4 4 4 3]
 [1 1 1 1 6 6 6 3 3 3]
 [1 1 6 6 6 6 6 3 3 3]
 [1 6 6 6 6 6 3 3 3 3]
 [6 6 6 6 6 6 3 3 3 3]]","[[5 5 5 5 5 2 2 2 2 2]
 [5 5 5 5 5 2 2 2 2 2]
 [5 5 5 5 5 4 4 4 2 2]
 [5 5 5 1 1 4 4 4 4 4]
 [1 1 1 1 1 4 4 4 4 4]
 [1 1 1 1 1 4 4 4 4 3]
 [1 1 1 1 6 6 6 3 3 3]
 [1 1 6 6 6 6 6 3 3 3]
 [1 6 6 6 6 6 3 3 3 3]
 [6 6 6 6 6 6 3 3 3 3]]","[[5 1]
 [6 1]
 [7 1]
 [8 1]
 [9 1]
 [5 2]
 [6 2]
 [7 2]
 [8 2]
 [5 3]
 [6 3]
 [7 3]
 [4 4]
 [5 4]
 [6 4]
 [7 4]
 [4 5]
 [5 5]
 [6 5]]","[190.         195.25343966 200.65213525 206.20010306 211.90147042
 217.76047878]",0.0276496823956,"[1.5   0.004 2.    1.   ]",NA,NA,NA,NA,NA,NA,NA,NA,NA,NA,NA,NA,0.0211366571237974,7.36121657696201e-05,NA,NA,0.745490189707451
"go","08-12-2022",74,"2",4,2,"0","0",58894,0,8,238.473892211914,18,1,-0.5,1.11803398874989,3.55273950361288,5.84913954557495e-14,1,1,"1",1,202.647363556279,206.200103059892,-3.55273950361288,4,"1","[[2 2 2 2 2 3 3 3 3 3]
 [2 2 2 2 2 3 3 3 3 3]
 [1 2 2 2 4 3 3 5 5 5]
 [1 1 1 4 4 4 5 5 5 5]
 [1 1 1 4 4 4 5 5 5 5]
 [1 1 1 4 4 4 5 5 5 5]
 [1 1 1 4 4 4 5 5 5 5]
 [1 1 1 1 4 4 6 6 6 6]
 [1 1 1 1 4 4 6 6 6 6]
 [1 1 1 1 4 6 6 6 6 6]]","[[2 2 2 2 2 3 3 3 3 3]
 [2 2 2 2 2 3 3 3 3 3]
 [1 2 2 2 4 3 3 5 5 5]
 [1 1 1 4 4 4 5 5 5 5]
 [1 1 1 4 4 4 5 5 5 5]
 [1 1 1 4 4 4 5 5 5 5]
 [1 1 1 4 4 4 5 5 5 5]
 [1 1 1 1 4 4 6 6 6 6]
 [1 1 1 1 4 4 6 6 6 6]
 [1 1 1 1 4 6 6 6 6 6]]","[[ 4  4]
 [ 5  4]
 [ 6  4]
 [ 7  4]
 [ 3  5]
 [ 4  5]
 [ 5  5]
 [ 6  5]
 [ 7  5]
 [ 8  5]
 [ 9  5]
 [10  5]
 [ 4  6]
 [ 5  6]
 [ 6  6]
 [ 7  6]
 [ 8  6]
 [ 9  6]]","[190.         195.25343966 200.65213525 206.20010306 211.90147042
 217.76047878]",0.0276496823956,"[1.5   0.004 2.    1.   ]",NA,NA,NA,NA,NA,NA,NA,NA,NA,NA,NA,NA,0.0570878834505749,0.0398404400886045,NA,NA,0.667952538842045
"go","08-12-2022",78,"2",4,1,"0","0",64908,0,9,338.400363922119,17,-3.5,2,4.03112887414927,12.3974512225392,5.85928550210846e-14,1,1,"1",1,205.363027553157,217.760478775696,-12.3974512225392,6,"0.2","[[1 1 1 1 6 6 6 6 6 6]
 [1 1 1 1 6 6 6 6 6 6]
 [4 4 4 4 6 6 6 6 6 5]
 [4 4 4 4 5 5 5 5 5 5]
 [4 4 4 4 5 5 5 5 5 5]
 [4 4 4 4 3 5 5 5 5 5]
 [4 4 3 3 3 3 3 5 5 2]
 [3 3 3 3 3 3 3 2 2 2]
 [3 3 3 3 3 3 3 2 2 2]
 [3 3 3 3 3 3 2 2 2 2]]","[[1 1 1 1 6 6 6 6 6 6]
 [1 1 1 1 6 6 6 6 6 6]
 [4 4 4 4 6 6 6 6 6 5]
 [4 4 4 4 5 5 5 5 5 5]
 [4 4 4 4 5 5 5 5 5 5]
 [4 4 4 4 3 5 5 5 5 5]
 [4 4 3 3 3 3 3 5 5 2]
 [3 3 3 3 3 3 3 2 2 2]
 [3 3 3 3 3 3 3 2 2 2]
 [3 3 3 3 3 3 2 2 2 2]]","[[ 1  5]
 [ 2  5]
 [ 3  5]
 [ 1  6]
 [ 2  6]
 [ 3  6]
 [ 1  7]
 [ 2  7]
 [ 3  7]
 [ 1  8]
 [ 2  8]
 [ 3  8]
 [ 1  9]
 [ 2  9]
 [ 3  9]
 [ 1 10]
 [ 2 10]]","[190.         195.25343966 200.65213525 206.20010306 211.90147042
 217.76047878]",0.0276496823956,"[1.5   0.004 2.    1.   ]",NA,NA,NA,NA,NA,NA,NA,NA,NA,NA,NA,NA,0.0597550629511794,0.0597550629511794,NA,NA,0.488798408452046
"go","08-12-2022",79,"2",5,2,"0","0",98802,0,11,748.438358306885,15,-1,1.5,1.80277563773199,-2.76351961009252,0,1,1,"1",1,203.41565485837,200.652135248278,2.76351961009252,3,"1","[[4 4 4 2 2 2 2 2 2 2]
 [4 4 4 4 2 2 2 2 2 2]
 [4 4 4 4 3 3 3 3 2 2]
 [6 6 4 4 3 3 3 3 3 5]
 [6 6 6 6 3 3 3 3 5 5]
 [6 6 6 6 3 3 5 5 5 5]
 [6 6 6 1 1 1 5 5 5 5]
 [6 1 1 1 1 1 5 5 5 5]
 [1 1 1 1 1 1 5 5 5 5]
 [1 1 1 1 1 1 5 5 5 5]]","[[4 4 4 2 2 2 2 2 2 2]
 [4 4 4 4 2 2 2 2 2 2]
 [4 4 4 4 3 3 3 3 2 2]
 [6 6 4 4 3 3 3 3 3 5]
 [6 6 6 6 3 3 3 3 5 5]
 [6 6 6 6 3 3 5 5 5 5]
 [6 6 6 1 1 1 5 5 5 5]
 [6 1 1 1 1 1 5 5 5 5]
 [1 1 1 1 1 1 5 5 5 5]
 [1 1 1 1 1 1 5 5 5 5]]","[[3 5]
 [4 5]
 [5 5]
 [6 5]
 [3 6]
 [4 6]
 [5 6]
 [6 6]
 [3 7]
 [4 7]
 [5 7]
 [3 8]
 [4 8]
 [5 8]
 [4 9]]","[190.         195.25343966 200.65213525 206.20010306 211.90147042
 217.76047878]",0.0276496823956,"[1.5   0.004 2.    1.   ]",NA,NA,NA,NA,NA,NA,NA,NA,NA,NA,NA,NA,0.0401005252484,0.0401005252484,NA,NA,0.566813021288111
"go","08-12-2022",3,"3",4,1,"0","1",44176,0,8,238.390445709228,3,1.5,1,1.80277563773199,-10.1429876977749,0,1,1,"1",0,205.396427352939,195.253439655164,10.1429876977749,2,"0.2","[[6 6 6 6 6 1 1 1 1 1]
 [6 6 6 6 6 1 1 1 1 1]
 [6 6 6 6 6 1 1 1 1 1]
 [6 6 6 6 4 4 1 1 1 1]
 [6 6 6 4 4 4 4 1 1 1]
 [6 6 6 4 4 4 2 3 3 3]
 [5 5 5 5 4 4 2 3 3 3]
 [5 5 5 5 5 2 3 3 3 3]
 [5 5 5 5 5 5 3 3 3 3]
 [5 5 5 5 5 5 3 3 3 3]]","[[6 6 6 6 6 1 1 1 1 1]
 [6 6 6 6 6 1 1 1 1 1]
 [6 6 6 6 6 1 1 1 1 1]
 [6 6 6 6 4 4 1 1 1 1]
 [6 6 6 4 4 4 4 1 1 1]
 [6 6 6 4 4 4 2 3 3 3]
 [5 5 5 5 4 4 2 3 3 3]
 [5 5 5 5 5 2 3 3 3 3]
 [5 5 5 5 5 5 3 3 3 3]
 [5 5 5 5 5 5 3 3 3 3]]","[[8 6]
 [6 7]
 [7 7]]","[190.         195.25343966 200.65213525 206.20010306 211.90147042
 217.76047878]",0.0276496823956,"[1.5   0.004 2.    1.   ]",NA,NA,NA,NA,NA,NA,NA,NA,NA,NA,NA,NA,0.105475235653387,0.105475235653387,NA,NA,0.414975553902346
"go","08-12-2022",7,"3",2,2,"0","0",32778,0,4,228.452682495117,20,-2,2.5,3.20156211871642,11.8227090765662,2.9160058604849e-14,1,1,"1",1,205.93776969913,217.760478775696,-11.8227090765662,6,"1","[[1 1 1 1 2 2 2 2 2 6]
 [1 1 1 5 2 2 2 2 6 6]
 [1 5 5 5 2 2 2 6 6 6]
 [5 5 5 5 2 2 6 6 6 6]
 [5 5 5 5 5 6 6 6 6 6]
 [5 5 5 5 5 6 6 6 6 6]
 [5 5 5 4 4 4 3 3 3 3]
 [4 4 4 4 4 4 3 3 3 3]
 [4 4 4 4 4 4 3 3 3 3]
 [4 4 4 4 4 3 3 3 3 3]]","[[1 1 1 1 2 2 2 2 2 6]
 [1 1 1 5 2 2 2 2 6 6]
 [1 5 5 5 2 2 2 6 6 6]
 [5 5 5 5 2 2 6 6 6 6]
 [5 5 5 5 5 6 6 6 6 6]
 [5 5 5 5 5 6 6 6 6 6]
 [5 5 5 4 4 4 3 3 3 3]
 [4 4 4 4 4 4 3 3 3 3]
 [4 4 4 4 4 4 3 3 3 3]
 [4 4 4 4 4 3 3 3 3 3]]","[[ 5  6]
 [ 6  6]
 [ 4  7]
 [ 5  7]
 [ 6  7]
 [ 3  8]
 [ 4  8]
 [ 5  8]
 [ 6  8]
 [ 2  9]
 [ 3  9]
 [ 4  9]
 [ 5  9]
 [ 6  9]
 [ 1 10]
 [ 2 10]
 [ 3 10]
 [ 4 10]
 [ 5 10]
 [ 6 10]]","[190.         195.25343966 200.65213525 206.20010306 211.90147042
 217.76047878]",0.0276496823956,"[1.5   0.004 2.    1.   ]",NA,NA,NA,NA,NA,NA,NA,NA,NA,NA,NA,NA,0.0406874289631292,0.0101783186559608,NA,NA,0.736734783378536
"go","08-12-2022",9,"3",1,1,"0","1",59043,0,2,238.420009613037,15,0,2,2,15.0228921506546,5.88385284466728e-14,1,1,"1",0,202.737586625041,217.760478775696,-15.0228921506546,6,"0.2","[[2 2 2 2 1 1 1 1 1 1]
 [2 2 2 2 1 1 1 1 1 1]
 [2 2 2 2 2 1 1 1 1 1]
 [3 2 2 2 2 6 6 1 1 1]
 [3 3 3 3 6 6 6 6 6 6]
 [3 3 3 3 6 6 6 6 6 6]
 [5 3 3 3 4 4 4 4 4 6]
 [5 5 5 4 4 4 4 4 4 4]
 [5 5 5 4 4 4 4 4 4 4]
 [5 5 5 4 4 4 4 4 4 4]]","[[2 2 2 2 1 1 1 1 1 1]
 [2 2 2 2 1 1 1 1 1 1]
 [2 2 2 2 2 1 1 1 1 1]
 [3 2 2 2 2 6 6 1 1 1]
 [3 3 3 3 6 6 6 6 6 6]
 [3 3 3 3 6 6 6 6 6 6]
 [5 3 3 3 4 4 4 4 4 6]
 [5 5 5 4 4 4 4 4 4 4]
 [5 5 5 4 4 4 4 4 4 4]
 [5 5 5 4 4 4 4 4 4 4]]","[[ 5  5]
 [ 6  5]
 [ 4  6]
 [ 5  6]
 [ 6  6]
 [ 4  7]
 [ 5  7]
 [ 6  7]
 [ 5  8]
 [ 6  8]
 [ 5  9]
 [ 6  9]
 [ 5 10]
 [ 6 10]
 [ 7 10]]","[190.         195.25343966 200.65213525 206.20010306 211.90147042
 217.76047878]",0.0276496823956,"[1.5   0.004 2.    1.   ]",NA,NA,NA,NA,NA,NA,NA,NA,NA,NA,NA,NA,0.0521511616579441,0.0018337775871127,NA,NA,0.681110868166062
"go","08-12-2022",10,"3",2,1,"0","0",87538,0,4,308.466196060181,23,2.5,2,3.20156211871642,13.2940278291357,0,1,1,"1",1,204.46645094656,217.760478775696,-13.2940278291357,6,"0.2","[[1 1 1 1 5 5 5 5 5 5]
 [1 1 1 1 5 5 5 5 4 4]
 [1 1 1 1 4 4 4 4 4 4]
 [1 1 1 2 2 4 4 4 4 4]
 [3 3 2 2 2 2 4 4 4 4]
 [3 3 3 2 2 2 4 4 6 6]
 [3 3 3 2 2 2 6 6 6 6]
 [3 3 3 3 2 6 6 6 6 6]
 [3 3 3 3 6 6 6 6 6 6]
 [3 3 3 3 6 6 6 6 6 6]]","[[1 1 1 1 5 5 5 5 5 5]
 [1 1 1 1 5 5 5 5 4 4]
 [1 1 1 1 4 4 4 4 4 4]
 [1 1 1 2 2 4 4 4 4 4]
 [3 3 2 2 2 2 4 4 4 4]
 [3 3 3 2 2 2 4 4 6 6]
 [3 3 3 2 2 2 6 6 6 6]
 [3 3 3 3 2 6 6 6 6 6]
 [3 3 3 3 6 6 6 6 6 6]
 [3 3 3 3 6 6 6 6 6 6]]","[[ 9  5]
 [10  5]
 [ 8  6]
 [ 9  6]
 [10  6]
 [ 7  7]
 [ 8  7]
 [ 9  7]
 [10  7]
 [ 7  8]
 [ 8  8]
 [ 9  8]
 [10  8]
 [ 6  9]
 [ 7  9]
 [ 8  9]
 [ 9  9]
 [10  9]
 [ 6 10]
 [ 7 10]
 [ 8 10]
 [ 9 10]
 [10 10]]","[190.         195.25343966 200.65213525 206.20010306 211.90147042
 217.76047878]",0.0276496823956,"[1.5   0.004 2.    1.   ]",NA,NA,NA,NA,NA,NA,NA,NA,NA,NA,NA,NA,0.0720380597146384,0.0112227201859012,NA,NA,0.59330551958591
"go","08-12-2022",12,"3",5,1,"0","0",73323,0,11,278.455972671509,15,-3.5,-2.5,4.30116263352131,6.12072596102396,8.82577926700092e-14,1,1,"1",1,205.780744458414,211.901470419438,-6.12072596102396,5,"0.2","[[5 5 5 5 5 1 1 1 1 1]
 [5 5 5 5 5 2 2 2 1 1]
 [5 5 5 5 5 2 2 2 2 2]
 [4 4 4 4 4 2 2 2 2 2]
 [4 4 4 4 4 4 2 2 2 2]
 [4 4 4 4 4 4 6 6 6 6]
 [3 3 3 3 4 6 6 6 6 6]
 [3 3 3 3 3 6 6 6 6 6]
 [3 3 3 3 3 6 6 6 6 6]
 [3 3 3 3 3 6 6 6 6 6]]","[[5 5 5 5 5 1 1 1 1 1]
 [5 5 5 5 5 2 2 2 1 1]
 [5 5 5 5 5 2 2 2 2 2]
 [4 4 4 4 4 2 2 2 2 2]
 [4 4 4 4 4 4 2 2 2 2]
 [4 4 4 4 4 4 6 6 6 6]
 [3 3 3 3 4 6 6 6 6 6]
 [3 3 3 3 3 6 6 6 6 6]
 [3 3 3 3 3 6 6 6 6 6]
 [3 3 3 3 3 6 6 6 6 6]]","[[1 1]
 [2 1]
 [3 1]
 [1 2]
 [2 2]
 [3 2]
 [1 3]
 [2 3]
 [3 3]
 [1 4]
 [2 4]
 [3 4]
 [1 5]
 [2 5]
 [3 5]]","[190.         195.25343966 200.65213525 206.20010306 211.90147042
 217.76047878]",0.0276496823956,"[1.5   0.004 2.    1.   ]",NA,NA,NA,NA,NA,NA,NA,NA,NA,NA,NA,NA,0.0849961472530644,0.0849961472530644,NA,NA,0.386744125189917
"go","08-12-2022",13,"3",3,1,"0","0",41596,0,7,288.414001464844,22,-3,2,3.60555127546399,-13.6803705604105,0,1,1,"1",1,203.68037056041,190,13.6803705604105,1,"0.2","[[2 2 2 2 1 1 1 1 1 1]
 [2 2 2 4 1 1 1 1 1 1]
 [2 2 2 4 4 1 1 1 1 1]
 [2 2 2 4 4 1 1 1 1 1]
 [2 2 2 4 4 6 6 6 6 6]
 [2 2 5 5 6 6 6 6 6 6]
 [5 5 5 5 5 6 6 6 6 6]
 [5 5 5 5 5 6 6 6 6 6]
 [5 5 5 5 5 3 3 3 3 3]
 [5 5 5 5 3 3 3 3 3 3]]","[[2 2 2 2 1 1 1 1 1 1]
 [2 2 2 4 1 1 1 1 1 1]
 [2 2 2 4 4 1 1 1 1 1]
 [2 2 2 4 4 1 1 1 1 1]
 [2 2 2 4 4 6 6 6 6 6]
 [2 2 5 5 6 6 6 6 6 6]
 [5 5 5 5 5 6 6 6 6 6]
 [5 5 5 5 5 6 6 6 6 6]
 [5 5 5 5 5 3 3 3 3 3]
 [5 5 5 5 3 3 3 3 3 3]]","[[ 1  5]
 [ 2  5]
 [ 1  6]
 [ 2  6]
 [ 3  6]
 [ 4  6]
 [ 1  7]
 [ 2  7]
 [ 3  7]
 [ 4  7]
 [ 1  8]
 [ 2  8]
 [ 3  8]
 [ 4  8]
 [ 1  9]
 [ 2  9]
 [ 3  9]
 [ 4  9]
 [ 1 10]
 [ 2 10]
 [ 3 10]
 [ 4 10]]","[190.         195.25343966 200.65213525 206.20010306 211.90147042
 217.76047878]",0.0276496823956,"[1.5   0.004 2.    1.   ]",NA,NA,NA,NA,NA,NA,NA,NA,NA,NA,NA,NA,0.0243800923149168,0.0136149191301536,NA,NA,0.607682351596402
"go","08-12-2022",17,"3",2,2,"0","0",24173,0,4,528.461217880249,14,3,-2.5,3.90512483795333,15.0017877042977,2.94946017710783e-14,1,1,"1",1,202.758691071398,217.760478775696,-15.0017877042977,6,"1","[[5 5 5 5 5 1 1 1 1 1]
 [5 5 5 5 5 1 1 1 1 1]
 [5 5 5 5 5 1 1 1 1 1]
 [5 5 5 5 2 1 1 1 1 1]
 [5 2 2 2 2 2 1 3 3 3]
 [2 2 2 2 2 2 3 3 3 3]
 [6 6 2 2 2 2 3 3 4 4]
 [6 6 6 2 2 2 4 4 4 4]
 [6 6 6 6 2 2 4 4 4 4]
 [6 6 6 6 6 4 4 4 4 4]]","[[5 5 5 5 5 1 1 1 1 1]
 [5 5 5 5 5 1 1 1 1 1]
 [5 5 5 5 5 1 1 1 1 1]
 [5 5 5 5 2 1 1 1 1 1]
 [5 2 2 2 2 2 1 3 3 3]
 [2 2 2 2 2 2 3 3 3 3]
 [6 6 2 2 2 2 3 3 4 4]
 [6 6 6 2 2 2 4 4 4 4]
 [6 6 6 6 2 2 4 4 4 4]
 [6 6 6 6 6 4 4 4 4 4]]","[[ 7  1]
 [ 8  1]
 [ 9  1]
 [10  1]
 [ 7  2]
 [ 8  2]
 [ 9  2]
 [10  2]
 [ 8  3]
 [ 9  3]
 [10  3]
 [ 9  4]
 [10  4]
 [10  5]]","[190.         195.25343966 200.65213525 206.20010306 211.90147042
 217.76047878]",0.0276496823956,"[1.5   0.004 2.    1.   ]",NA,NA,NA,NA,NA,NA,NA,NA,NA,NA,NA,NA,0.0441370772495941,0.0002608734211369,NA,NA,0.743713919132911
"go","08-12-2022",20,"3",4,1,"0","0",19975,0,8,298.317432403564,13,3.5,-2.5,4.30116263352131,-8.4788786452601,5.9164506167978e-14,1,1,"1",1,203.732318300424,195.253439655164,8.4788786452601,2,"0.2","[[4 4 4 4 6 6 6 6 6 6]
 [4 4 4 4 4 6 6 6 6 6]
 [5 4 4 4 4 6 6 6 6 6]
 [5 5 5 4 4 4 1 1 1 1]
 [5 5 5 5 4 1 1 1 1 1]
 [5 5 5 5 5 1 1 1 1 1]
 [5 5 5 5 3 3 3 1 1 1]
 [2 2 2 2 3 3 3 3 3 3]
 [2 2 2 2 3 3 3 3 3 3]
 [2 2 2 2 2 3 3 3 3 3]]","[[4 4 4 4 6 6 6 6 6 6]
 [4 4 4 4 4 6 6 6 6 6]
 [5 4 4 4 4 6 6 6 6 6]
 [5 5 5 4 4 4 1 1 1 1]
 [5 5 5 5 4 1 1 1 1 1]
 [5 5 5 5 5 1 1 1 1 1]
 [5 5 5 5 3 3 3 1 1 1]
 [2 2 2 2 3 3 3 3 3 3]
 [2 2 2 2 3 3 3 3 3 3]
 [2 2 2 2 2 3 3 3 3 3]]","[[ 8  1]
 [ 9  1]
 [10  1]
 [ 8  2]
 [ 9  2]
 [10  2]
 [ 8  3]
 [ 9  3]
 [10  3]
 [ 8  4]
 [ 9  4]
 [10  4]
 [10  5]]","[190.         195.25343966 200.65213525 206.20010306 211.90147042
 217.76047878]",0.0276496823956,"[1.5   0.004 2.    1.   ]",NA,NA,NA,NA,NA,NA,NA,NA,NA,NA,NA,NA,0.0440527471696943,0.0440527471696943,NA,NA,0.51443234376501
"go","08-12-2022",22,"3",5,2,"0","0",16639,0,11,218.470096588135,20,2.5,2.5,3.53553390593274,1.30317447630989,2.9160058604849e-14,1,1,"1",1,204.896928583582,206.200103059892,-1.30317447630989,4,"1","[[1 1 1 1 1 3 3 3 3 3]
 [1 1 1 1 1 3 3 3 3 3]
 [6 6 6 6 6 3 3 3 3 5]
 [6 6 6 6 6 5 5 5 5 5]
 [6 6 6 6 6 5 5 5 5 5]
 [6 6 6 6 6 5 5 5 4 4]
 [2 2 2 2 6 5 4 4 4 4]
 [2 2 2 2 2 4 4 4 4 4]
 [2 2 2 2 2 4 4 4 4 4]
 [2 2 2 2 2 2 4 4 4 4]]","[[1 1 1 1 1 3 3 3 3 3]
 [1 1 1 1 1 3 3 3 3 3]
 [6 6 6 6 6 3 3 3 3 5]
 [6 6 6 6 6 5 5 5 5 5]
 [6 6 6 6 6 5 5 5 5 5]
 [6 6 6 6 6 5 5 5 4 4]
 [2 2 2 2 6 5 4 4 4 4]
 [2 2 2 2 2 4 4 4 4 4]
 [2 2 2 2 2 4 4 4 4 4]
 [2 2 2 2 2 2 4 4 4 4]]","[[ 8  6]
 [ 9  6]
 [ 7  7]
 [ 8  7]
 [ 9  7]
 [10  7]
 [ 7  8]
 [ 8  8]
 [ 9  8]
 [10  8]
 [ 6  9]
 [ 7  9]
 [ 8  9]
 [ 9  9]
 [10  9]
 [ 6 10]
 [ 7 10]
 [ 8 10]
 [ 9 10]
 [10 10]]","[190.         195.25343966 200.65213525 206.20010306 211.90147042
 217.76047878]",0.0276496823956,"[1.5   0.004 2.    1.   ]",NA,NA,NA,NA,NA,NA,NA,NA,NA,NA,NA,NA,0.0373957973795058,0.0373957973795058,NA,NA,0.559812648540019
"go","08-12-2022",24,"3",5,1,"0","1",17534,0,10,278.425455093384,13,2,-3.5,4.03112887414927,10.2650565580606,5.9164506167978e-14,1,1,"1",0,201.636413861377,211.901470419438,-10.2650565580606,5,"0.2","[[1 1 1 1 1 6 6 6 6 6]
 [1 1 1 1 1 6 6 6 6 3]
 [1 1 1 1 1 6 6 3 3 3]
 [1 1 1 1 1 6 3 3 3 3]
 [5 1 1 1 1 3 3 3 3 3]
 [5 5 4 4 4 4 3 3 3 3]
 [5 5 4 4 4 4 2 2 2 2]
 [5 5 4 4 4 4 2 2 2 2]
 [5 5 5 4 4 4 2 2 2 2]
 [5 5 5 4 4 2 2 2 2 2]]","[[1 1 1 1 1 6 6 6 6 6]
 [1 1 1 1 1 6 6 6 6 3]
 [1 1 1 1 1 6 6 3 3 3]
 [1 1 1 1 1 6 3 3 3 3]
 [5 1 1 1 1 3 3 3 3 3]
 [5 5 4 4 4 4 3 3 3 3]
 [5 5 4 4 4 4 2 2 2 2]
 [5 5 4 4 4 4 2 2 2 2]
 [5 5 5 4 4 4 2 2 2 2]
 [5 5 5 4 4 2 2 2 2 2]]","[[ 5  1]
 [ 6  1]
 [ 7  1]
 [ 8  1]
 [ 9  1]
 [10  1]
 [ 6  2]
 [ 7  2]
 [ 8  2]
 [ 9  2]
 [10  2]
 [ 9  3]
 [10  3]]","[190.         195.25343966 200.65213525 206.20010306 211.90147042
 217.76047878]",0.0276496823956,"[1.5   0.004 2.    1.   ]",NA,NA,NA,NA,NA,NA,NA,NA,NA,NA,NA,NA,0.0471875711274331,0.0471875711274331,NA,NA,0.44668515110683
"go","08-12-2022",25,"3",5,2,"0","1",5990,0,10,1.59525871276855,7,-4,1.5,4.27200187265877,-3.0611490984096,0,1,1,"1",0,203.713284346687,200.652135248278,3.0611490984096,3,"1","[[2 2 2 2 3 3 3 3 3 5]
 [2 2 2 2 2 3 3 5 5 5]
 [1 1 2 2 2 5 5 5 5 5]
 [1 1 1 6 6 5 5 5 5 5]
 [1 1 1 6 6 6 5 5 5 5]
 [1 1 1 6 6 6 5 5 5 5]
 [1 1 1 4 4 4 4 4 5 5]
 [1 1 4 4 4 4 4 4 4 4]
 [1 1 4 4 4 4 4 4 4 4]
 [1 4 4 4 4 4 4 4 4 4]]","[[2 2 2 2 3 3 3 3 3 5]
 [2 2 2 2 2 3 3 5 5 5]
 [1 1 2 2 2 5 5 5 5 5]
 [1 1 1 6 6 5 5 5 5 5]
 [1 1 1 6 6 6 5 5 5 5]
 [1 1 1 6 6 6 5 5 5 5]
 [1 1 1 4 4 4 4 4 5 5]
 [1 1 4 4 4 4 4 4 4 4]
 [1 1 4 4 4 4 4 4 4 4]
 [1 4 4 4 4 4 4 4 4 4]]","[[1 5]
 [1 6]
 [2 6]
 [1 7]
 [2 7]
 [1 8]
 [1 9]]","[190.         195.25343966 200.65213525 206.20010306 211.90147042
 217.76047878]",0.0276496823956,"[1.5   0.004 2.    1.   ]",NA,NA,NA,NA,NA,NA,NA,NA,NA,NA,NA,NA,0.0696422947631948,0.0696422947631948,NA,NA,0.640995875694082
"go","08-12-2022",26,"3",1,1,"0","0",83737,0,2,238.390445709228,18,2,-3,3.60555127546399,-9.20342561883456,5.84913954557495e-14,1,1,"1",1,204.456865273999,195.253439655164,9.20342561883456,2,"0.2","[[6 6 6 6 6 1 1 1 1 1]
 [6 6 6 6 6 1 1 1 1 1]
 [6 6 6 6 4 3 1 1 1 1]
 [6 4 4 4 4 3 3 3 3 3]
 [2 4 4 4 4 3 3 3 3 3]
 [2 2 4 4 4 3 3 5 5 5]
 [2 2 2 4 4 5 5 5 5 5]
 [2 2 2 2 5 5 5 5 5 5]
 [2 2 2 2 5 5 5 5 5 5]
 [2 2 2 2 5 5 5 5 5 5]]","[[6 6 6 6 6 1 1 1 1 1]
 [6 6 6 6 6 1 1 1 1 1]
 [6 6 6 6 4 3 1 1 1 1]
 [6 4 4 4 4 3 3 3 3 3]
 [2 4 4 4 4 3 3 3 3 3]
 [2 2 4 4 4 3 3 5 5 5]
 [2 2 2 4 4 5 5 5 5 5]
 [2 2 2 2 5 5 5 5 5 5]
 [2 2 2 2 5 5 5 5 5 5]
 [2 2 2 2 5 5 5 5 5 5]]","[[ 5  1]
 [ 6  1]
 [ 7  1]
 [ 8  1]
 [ 9  1]
 [10  1]
 [ 6  2]
 [ 7  2]
 [ 8  2]
 [ 9  2]
 [10  2]
 [ 7  3]
 [ 8  3]
 [ 9  3]
 [10  3]
 [ 8  4]
 [ 9  4]
 [10  4]]","[190.         195.25343966 200.65213525 206.20010306 211.90147042
 217.76047878]",0.0276496823956,"[1.5   0.004 2.    1.   ]",NA,NA,NA,NA,NA,NA,NA,NA,NA,NA,NA,NA,0.0333511444195373,0.0011708981699886,NA,NA,0.707168879172412
"go","08-12-2022",27,"3",4,2,"0","1",25372,0,9,1.63602828979492,15,-3,-2.5,3.90512483795333,2.82592642101923,5.88385284466728e-14,1,1,"1",0,203.374176638872,206.200103059892,-2.82592642101923,4,"1","[[4 4 4 4 6 6 6 6 6 6]
 [4 4 4 4 6 6 6 6 6 6]
 [4 4 4 4 4 6 6 6 5 5]
 [4 4 3 3 1 5 5 5 5 5]
 [3 3 3 1 1 5 5 5 5 5]
 [3 3 3 1 1 5 5 5 2 2]
 [3 3 3 1 1 2 2 2 2 2]
 [3 3 3 1 2 2 2 2 2 2]
 [3 3 3 2 2 2 2 2 2 2]
 [3 3 2 2 2 2 2 2 2 2]]","[[4 4 4 4 6 6 6 6 6 6]
 [4 4 4 4 6 6 6 6 6 6]
 [4 4 4 4 4 6 6 6 5 5]
 [4 4 3 3 1 5 5 5 5 5]
 [3 3 3 1 1 5 5 5 5 5]
 [3 3 3 1 1 5 5 5 2 2]
 [3 3 3 1 1 2 2 2 2 2]
 [3 3 3 1 2 2 2 2 2 2]
 [3 3 3 2 2 2 2 2 2 2]
 [3 3 2 2 2 2 2 2 2 2]]","[[1 1]
 [2 1]
 [3 1]
 [4 1]
 [1 2]
 [2 2]
 [3 2]
 [4 2]
 [1 3]
 [2 3]
 [3 3]
 [1 4]
 [2 4]
 [3 4]
 [3 5]]","[190.         195.25343966 200.65213525 206.20010306 211.90147042
 217.76047878]",0.0276496823956,"[1.5   0.004 2.    1.   ]",NA,NA,NA,NA,NA,NA,NA,NA,NA,NA,NA,NA,0.071632288272839,0.071632288272839,NA,NA,0.700980403057528
"go","08-12-2022",28,"3",4,2,"0","0",86233,0,8,238.463401794434,18,3,-2.5,3.90512483795333,-8.26911035913412,5.84913954557495e-14,1,1,"1",1,203.522550014298,195.253439655164,8.26911035913412,2,"1","[[5 5 5 5 5 1 1 1 1 1]
 [5 5 5 5 5 1 1 1 1 1]
 [5 5 5 6 6 1 1 1 1 3]
 [5 6 6 6 6 1 1 3 3 3]
 [6 6 6 6 6 1 3 3 3 3]
 [6 6 6 6 6 3 3 3 3 3]
 [6 6 2 2 2 4 4 4 3 3]
 [2 2 2 2 2 4 4 4 4 4]
 [2 2 2 2 2 4 4 4 4 4]
 [2 2 2 2 2 4 4 4 4 4]]","[[5 5 5 5 5 1 1 1 1 1]
 [5 5 5 5 5 1 1 1 1 1]
 [5 5 5 6 6 1 1 1 1 3]
 [5 6 6 6 6 1 1 3 3 3]
 [6 6 6 6 6 1 3 3 3 3]
 [6 6 6 6 6 3 3 3 3 3]
 [6 6 2 2 2 4 4 4 3 3]
 [2 2 2 2 2 4 4 4 4 4]
 [2 2 2 2 2 4 4 4 4 4]
 [2 2 2 2 2 4 4 4 4 4]]","[[ 8  1]
 [ 9  1]
 [10  1]
 [ 8  2]
 [ 9  2]
 [10  2]
 [ 7  3]
 [ 8  3]
 [ 9  3]
 [10  3]
 [ 7  4]
 [ 8  4]
 [ 9  4]
 [10  4]
 [ 7  5]
 [ 8  5]
 [ 9  5]
 [10  5]]","[190.         195.25343966 200.65213525 206.20010306 211.90147042
 217.76047878]",0.0276496823956,"[1.5   0.004 2.    1.   ]",NA,NA,NA,NA,NA,NA,NA,NA,NA,NA,NA,NA,0.05275167968046,0.0298287060084953,NA,NA,0.657757111795667
"go","08-12-2022",30,"3",5,2,"0","1",52369,0,10,268.48292350769,16,-2,-2,2.82842712474619,3.30031576212218,5.87076305571739e-14,1,1,"1",0,202.89978729777,206.200103059892,-3.30031576212218,4,"1","[[3 3 3 3 3 1 1 1 1 1]
 [3 3 3 3 4 1 1 1 1 1]
 [3 3 4 4 4 4 1 1 1 1]
 [4 4 4 4 4 4 6 6 6 1]
 [4 4 4 4 4 6 6 6 6 6]
 [2 2 2 2 2 6 6 6 6 6]
 [2 2 2 2 2 2 5 5 5 5]
 [2 2 2 2 2 2 5 5 5 5]
 [2 2 2 2 2 5 5 5 5 5]
 [2 2 2 2 5 5 5 5 5 5]]","[[3 3 3 3 3 1 1 1 1 1]
 [3 3 3 3 4 1 1 1 1 1]
 [3 3 4 4 4 4 1 1 1 1]
 [4 4 4 4 4 4 6 6 6 1]
 [4 4 4 4 4 6 6 6 6 6]
 [2 2 2 2 2 6 6 6 6 6]
 [2 2 2 2 2 2 5 5 5 5]
 [2 2 2 2 2 2 5 5 5 5]
 [2 2 2 2 2 5 5 5 5 5]
 [2 2 2 2 5 5 5 5 5 5]]","[[4 1]
 [5 1]
 [4 2]
 [5 2]
 [3 3]
 [4 3]
 [5 3]
 [3 4]
 [4 4]
 [5 4]
 [2 5]
 [3 5]
 [4 5]
 [5 5]
 [3 6]
 [4 6]]","[190.         195.25343966 200.65213525 206.20010306 211.90147042
 217.76047878]",0.0276496823956,"[1.5   0.004 2.    1.   ]",NA,NA,NA,NA,NA,NA,NA,NA,NA,NA,NA,NA,0.0536685936781307,0.0536685936781307,NA,NA,0.60147600517586
"go","08-12-2022",31,"3",5,1,"0","0",90276,0,11,258.463144302368,11,-0.5,-2,2.06155281280883,-11.1836069842053,2.98089403307288e-14,1,1,"1",1,206.437046639369,195.253439655164,11.1836069842053,2,"0.2","[[5 5 5 5 5 5 3 3 3 3]
 [5 5 5 5 5 5 3 3 3 3]
 [5 5 5 5 5 5 1 3 3 3]
 [5 5 5 2 2 2 1 1 1 1]
 [2 2 2 2 2 2 1 1 1 1]
 [4 4 4 4 2 2 6 6 6 6]
 [4 4 4 4 4 4 6 6 6 6]
 [4 4 4 4 4 4 6 6 6 6]
 [4 4 4 4 4 4 6 6 6 6]
 [4 4 4 4 4 4 6 6 6 6]]","[[5 5 5 5 5 5 3 3 3 3]
 [5 5 5 5 5 5 3 3 3 3]
 [5 5 5 5 5 5 1 3 3 3]
 [5 5 5 2 2 2 1 1 1 1]
 [2 2 2 2 2 2 1 1 1 1]
 [4 4 4 4 2 2 6 6 6 6]
 [4 4 4 4 4 4 6 6 6 6]
 [4 4 4 4 4 4 6 6 6 6]
 [4 4 4 4 4 4 6 6 6 6]
 [4 4 4 4 4 4 6 6 6 6]]","[[5 1]
 [5 2]
 [5 3]
 [4 4]
 [5 4]
 [4 5]
 [5 5]
 [6 5]
 [4 6]
 [5 6]
 [6 6]]","[190.         195.25343966 200.65213525 206.20010306 211.90147042
 217.76047878]",0.0276496823956,"[1.5   0.004 2.    1.   ]",NA,NA,NA,NA,NA,NA,NA,NA,NA,NA,NA,NA,0.0239748285802195,0.0239748285802195,NA,NA,0.484390135445267
"go","08-12-2022",32,"3",3,2,"0","0",13901,0,6,188.446044921875,20,-2,3,3.60555127546399,13.057386132429,2.9160058604849e-14,1,1,"1",1,204.703092643267,217.760478775696,-13.057386132429,6,"1","[[4 4 4 4 4 2 2 2 6 6]
 [4 4 4 4 4 2 2 6 6 6]
 [3 3 3 3 3 3 6 6 6 6]
 [3 3 3 3 3 3 6 6 6 6]
 [3 3 3 3 3 3 6 6 6 6]
 [3 3 3 3 3 5 5 6 6 6]
 [1 1 1 1 1 5 5 5 5 5]
 [1 1 1 1 1 5 5 5 5 5]
 [1 1 1 1 1 5 5 5 5 5]
 [1 1 1 1 1 5 5 5 5 5]]","[[4 4 4 4 4 2 2 2 6 6]
 [4 4 4 4 4 2 2 6 6 6]
 [3 3 3 3 3 3 6 6 6 6]
 [3 3 3 3 3 3 6 6 6 6]
 [3 3 3 3 3 3 6 6 6 6]
 [3 3 3 3 3 5 5 6 6 6]
 [1 1 1 1 1 5 5 5 5 5]
 [1 1 1 1 1 5 5 5 5 5]
 [1 1 1 1 1 5 5 5 5 5]
 [1 1 1 1 1 5 5 5 5 5]]","[[ 3  7]
 [ 4  7]
 [ 5  7]
 [ 2  8]
 [ 3  8]
 [ 4  8]
 [ 5  8]
 [ 6  8]
 [ 1  9]
 [ 2  9]
 [ 3  9]
 [ 4  9]
 [ 5  9]
 [ 6  9]
 [ 1 10]
 [ 2 10]
 [ 3 10]
 [ 4 10]
 [ 5 10]
 [ 6 10]]","[190.         195.25343966 200.65213525 206.20010306 211.90147042
 217.76047878]",0.0276496823956,"[1.5   0.004 2.    1.   ]",NA,NA,NA,NA,NA,NA,NA,NA,NA,NA,NA,NA,0.0573180132426135,0.0292490338632804,NA,NA,0.721658679544515
"go","08-12-2022",33,"3",3,2,"0","0",23232,0,7,1.5711784362793,10,-4,-2.5,4.7169905660283,8.08912055557852,2.99591122651879e-14,1,1,"1",1,203.812349863859,211.901470419438,-8.08912055557852,5,"1","[[5 5 5 5 5 6 6 6 6 6]
 [5 5 5 5 5 6 6 6 6 6]
 [2 2 2 2 2 6 6 6 6 6]
 [2 2 2 2 2 6 6 6 6 6]
 [2 2 2 2 1 1 1 1 6 6]
 [3 3 2 1 1 1 1 1 1 1]
 [3 3 3 1 1 1 1 1 1 1]
 [3 3 3 3 4 4 4 4 4 4]
 [3 3 3 3 4 4 4 4 4 4]
 [3 3 3 3 4 4 4 4 4 4]]","[[5 5 5 5 5 6 6 6 6 6]
 [5 5 5 5 5 6 6 6 6 6]
 [2 2 2 2 2 6 6 6 6 6]
 [2 2 2 2 2 6 6 6 6 6]
 [2 2 2 2 1 1 1 1 6 6]
 [3 3 2 1 1 1 1 1 1 1]
 [3 3 3 1 1 1 1 1 1 1]
 [3 3 3 3 4 4 4 4 4 4]
 [3 3 3 3 4 4 4 4 4 4]
 [3 3 3 3 4 4 4 4 4 4]]","[[1 1]
 [2 1]
 [1 2]
 [2 2]
 [1 3]
 [2 3]
 [1 4]
 [2 4]
 [1 5]
 [2 5]]","[190.         195.25343966 200.65213525 206.20010306 211.90147042
 217.76047878]",0.0276496823956,"[1.5   0.004 2.    1.   ]",NA,NA,NA,NA,NA,NA,NA,NA,NA,NA,NA,NA,0.0424023868384587,0.0424023868384587,NA,NA,0.689068202378348
"go","08-12-2022",36,"3",4,1,"0","0",99998,0,8,208.390712738037,18,0.5,2.5,2.54950975679639,8.10135692138152,8.77370931836242e-14,1,1,"1",1,203.800113498056,211.901470419438,-8.10135692138152,5,"0.2","[[6 6 6 6 6 2 2 2 2 2]
 [6 6 6 6 6 2 2 2 2 2]
 [6 6 6 6 6 6 2 2 2 2]
 [3 3 3 6 6 5 5 5 5 5]
 [3 3 3 3 4 5 5 5 5 5]
 [3 3 3 4 4 1 5 5 5 5]
 [3 3 3 4 4 1 1 5 5 5]
 [3 3 3 4 4 1 1 1 1 5]
 [3 3 3 4 4 1 1 1 1 1]
 [3 3 3 4 4 1 1 1 1 1]]","[[6 6 6 6 6 2 2 2 2 2]
 [6 6 6 6 6 2 2 2 2 2]
 [6 6 6 6 6 6 2 2 2 2]
 [3 3 3 6 6 5 5 5 5 5]
 [3 3 3 3 4 5 5 5 5 5]
 [3 3 3 4 4 1 5 5 5 5]
 [3 3 3 4 4 1 1 5 5 5]
 [3 3 3 4 4 1 1 1 1 5]
 [3 3 3 4 4 1 1 1 1 1]
 [3 3 3 4 4 1 1 1 1 1]]","[[ 4  6]
 [ 5  6]
 [ 4  7]
 [ 5  7]
 [ 6  7]
 [ 4  8]
 [ 5  8]
 [ 6  8]
 [ 7  8]
 [ 4  9]
 [ 5  9]
 [ 6  9]
 [ 7  9]
 [ 4 10]
 [ 5 10]
 [ 6 10]
 [ 7 10]
 [ 8 10]]","[190.         195.25343966 200.65213525 206.20010306 211.90147042
 217.76047878]",0.0276496823956,"[1.5   0.004 2.    1.   ]",NA,NA,NA,NA,NA,NA,NA,NA,NA,NA,NA,NA,0.0430015748294231,0.0430015748294231,NA,NA,0.516147163458671
"go","08-12-2022",39,"3",1,2,"0","0",91800,0,2,358.455657958984,24,1.5,2.5,2.91547594742265,-8.6147591868918,0,1,1,"1",1,203.868198842056,195.253439655164,8.6147591868918,2,"1","[[3 3 3 3 3 4 4 4 4 4]
 [3 3 3 3 3 4 4 4 4 4]
 [1 1 1 3 4 4 4 4 4 4]
 [1 1 1 1 5 4 4 4 4 2]
 [1 1 1 1 5 5 5 2 2 2]
 [1 1 1 5 5 5 2 2 2 2]
 [6 6 6 6 6 2 2 2 2 2]
 [6 6 6 6 6 6 2 2 2 2]
 [6 6 6 6 6 6 2 2 2 2]
 [6 6 6 6 6 6 6 2 2 2]]","[[3 3 3 3 3 4 4 4 4 4]
 [3 3 3 3 3 4 4 4 4 4]
 [1 1 1 3 4 4 4 4 4 4]
 [1 1 1 1 5 4 4 4 4 2]
 [1 1 1 1 5 5 5 2 2 2]
 [1 1 1 5 5 5 2 2 2 2]
 [6 6 6 6 6 2 2 2 2 2]
 [6 6 6 6 6 6 2 2 2 2]
 [6 6 6 6 6 6 2 2 2 2]
 [6 6 6 6 6 6 6 2 2 2]]","[[ 7  6]
 [ 6  7]
 [ 7  7]
 [ 8  7]
 [ 9  7]
 [ 5  8]
 [ 6  8]
 [ 7  8]
 [ 8  8]
 [ 9  8]
 [10  8]
 [ 5  9]
 [ 6  9]
 [ 7  9]
 [ 8  9]
 [ 9  9]
 [10  9]
 [ 4 10]
 [ 5 10]
 [ 6 10]
 [ 7 10]
 [ 8 10]
 [ 9 10]
 [10 10]]","[190.         195.25343966 200.65213525 206.20010306 211.90147042
 217.76047878]",0.0276496823956,"[1.5   0.004 2.    1.   ]",NA,NA,NA,NA,NA,NA,NA,NA,NA,NA,NA,NA,0.0502449250157987,0.0006588782418015,NA,NA,0.799146829140184
"go","08-12-2022",40,"3",2,1,"0","1",39180,0,4,258.474111557007,19,3,2.5,3.90512483795333,12.0884914647709,5.8401061200366e-14,1,1,"1",0,205.671987310925,217.760478775696,-12.0884914647709,6,"0.2","[[1 1 1 1 1 1 2 2 2 2]
 [1 1 1 1 1 1 2 2 2 2]
 [4 4 4 4 4 1 2 3 3 3]
 [4 4 4 4 4 4 3 3 3 3]
 [4 4 4 4 4 4 3 3 3 3]
 [5 5 4 4 4 4 3 3 3 3]
 [5 5 5 5 5 6 6 6 6 3]
 [5 5 5 5 5 6 6 6 6 6]
 [5 5 5 5 5 6 6 6 6 6]
 [5 5 5 5 5 6 6 6 6 6]]","[[1 1 1 1 1 1 2 2 2 2]
 [1 1 1 1 1 1 2 2 2 2]
 [4 4 4 4 4 1 2 3 3 3]
 [4 4 4 4 4 4 3 3 3 3]
 [4 4 4 4 4 4 3 3 3 3]
 [5 5 4 4 4 4 3 3 3 3]
 [5 5 5 5 5 6 6 6 6 3]
 [5 5 5 5 5 6 6 6 6 6]
 [5 5 5 5 5 6 6 6 6 6]
 [5 5 5 5 5 6 6 6 6 6]]","[[ 7  6]
 [ 8  6]
 [ 9  6]
 [10  6]
 [ 7  7]
 [ 8  7]
 [ 9  7]
 [10  7]
 [ 7  8]
 [ 8  8]
 [ 9  8]
 [10  8]
 [ 7  9]
 [ 8  9]
 [ 9  9]
 [10  9]
 [ 8 10]
 [ 9 10]
 [10 10]]","[190.         195.25343966 200.65213525 206.20010306 211.90147042
 217.76047878]",0.0276496823956,"[1.5   0.004 2.    1.   ]",NA,NA,NA,NA,NA,NA,NA,NA,NA,NA,NA,NA,0.0717384592535635,0.0260955757186661,NA,NA,0.593777605428313
"go","08-12-2022",41,"3",3,1,"0","1",79183,0,6,228.44123840332,13,-3.5,-2.5,4.30116263352131,14.7873761277347,2.9582253083989e-14,1,1,"1",0,202.973102647961,217.760478775696,-14.7873761277347,6,"0.2","[[6 6 6 6 6 3 3 3 3 2]
 [6 6 6 6 6 3 3 3 2 2]
 [4 4 6 6 6 3 3 2 2 2]
 [4 4 4 4 4 3 2 2 2 2]
 [4 4 4 4 4 2 2 2 2 2]
 [1 1 4 4 4 2 2 2 2 2]
 [1 1 1 1 1 5 5 5 5 5]
 [1 1 1 1 1 5 5 5 5 5]
 [1 1 1 1 5 5 5 5 5 5]
 [1 1 1 1 5 5 5 5 5 5]]","[[6 6 6 6 6 3 3 3 3 2]
 [6 6 6 6 6 3 3 3 2 2]
 [4 4 6 6 6 3 3 2 2 2]
 [4 4 4 4 4 3 2 2 2 2]
 [4 4 4 4 4 2 2 2 2 2]
 [1 1 4 4 4 2 2 2 2 2]
 [1 1 1 1 1 5 5 5 5 5]
 [1 1 1 1 1 5 5 5 5 5]
 [1 1 1 1 5 5 5 5 5 5]
 [1 1 1 1 5 5 5 5 5 5]]","[[1 1]
 [2 1]
 [1 2]
 [2 2]
 [1 3]
 [2 3]
 [3 3]
 [1 4]
 [2 4]
 [3 4]
 [1 5]
 [2 5]
